<CodeList xmlns="http://www.cdisc.org/ns/odm/v1.3" xmlns:nciodm="http://ncicb.nci.nih.gov/xml/odm/EVS/CDISC" xmlns:xs="http://www.w3.org/2001/XMLSchema-instance" OID="CL.C99077.STYPE" Name="Study Type" DataType="text" nciodm:ExtCodeID="C99077" nciodm:CodeListExtensible="No">
        <Description>
          <TranslatedText xml:lang="en">Describes the role the study plays in determining the interventions a subject receives.</TranslatedText>
        </Description>
        <EnumeratedItem CodedValue="EXPANDED ACCESS" nciodm:ExtCodeID="C98722">
          <nciodm:CDISCDefinition>Studies that provide a means for obtaining an experimental drug or device for patients who are not adequately treated by existing therapy, who do not meet the eligibility criteria for enrollment, or who are otherwise unable to participate in another clinical study. Expanded Access studies include individual-patient IND, treatment IND, compassionate use, emergency use or continued access.</nciodm:CDISCDefinition>
          <nciodm:PreferredTerm>Expanded Access Study</nciodm:PreferredTerm>
        </EnumeratedItem>
        <EnumeratedItem CodedValue="INTERVENTIONAL" nciodm:ExtCodeID="C98388">
          <nciodm:CDISCDefinition>Studies in which individuals are assigned by an investigator based on a protocol to receive specific interventions. Subjects may receive diagnostic, therapeutic or other types of interventions. The assignment of the intervention may or may not be random. The individuals are then followed and biomedical and/or health outcomes are assessed.</nciodm:CDISCDefinition>
          <nciodm:PreferredTerm>Interventional Study</nciodm:PreferredTerm>
        </EnumeratedItem>
        <EnumeratedItem CodedValue="OBSERVATIONAL" nciodm:ExtCodeID="C16084">
          <nciodm:CDISCDefinition>Studies in which biomedical and/or health outcomes are assessed in pre-defined groups of individuals. Subjects in the study may receive diagnostic, therapeutic, or other interventions, but the investigator does not assign specific interventions to the subjects of the study.</nciodm:CDISCDefinition>
          <nciodm:PreferredTerm>Observational Study</nciodm:PreferredTerm>
        </EnumeratedItem>
        <nciodm:CDISCSubmissionValue>STYPE</nciodm:CDISCSubmissionValue>
        <nciodm:CDISCSynonym>Study Type</nciodm:CDISCSynonym>
        <nciodm:PreferredTerm>CDISC SDTM Study Type Terminology</nciodm:PreferredTerm>
      </CodeList>
    