<CodeList xmlns="http://www.cdisc.org/ns/odm/v1.3" xmlns:nciodm="http://ncicb.nci.nih.gov/xml/odm/EVS/CDISC" xmlns:xs="http://www.w3.org/2001/XMLSchema-instance" OID="CL.C66784.TOXGR" Name="Common Terminology Criteria for Adverse Events" DataType="text" nciodm:ExtCodeID="C66784" nciodm:CodeListExtensible="No">
        <Description>
          <TranslatedText xml:lang="en">A standard terminology developed to report adverse events occurring in cancer clinical trials. Common terminology criteria for adverse events (CTCAE) are used in study adverse event summaries and Investigational New Drug reports to the Food and Drug Administration. The CTCAE contain a grading scale for each adverse event term representing the severity of the event. (NCI)</TranslatedText>
        </Description>
        <EnumeratedItem CodedValue="1" nciodm:ExtCodeID="C41338">
          <nciodm:CDISCSynonym>Grade 1</nciodm:CDISCSynonym>
          <nciodm:CDISCSynonym>1</nciodm:CDISCSynonym>
          <nciodm:CDISCDefinition>A type of adverse event that is usually transient and may require only minimal treatment or therapeutic intervention. The event does not generally interfere with usual activities of daily living.</nciodm:CDISCDefinition>
          <nciodm:PreferredTerm>Mild Adverse Event</nciodm:PreferredTerm>
        </EnumeratedItem>
        <EnumeratedItem CodedValue="2" nciodm:ExtCodeID="C41339">
          <nciodm:CDISCSynonym>Grade 2</nciodm:CDISCSynonym>
          <nciodm:CDISCSynonym>2</nciodm:CDISCSynonym>
          <nciodm:CDISCDefinition>A type of adverse event that is usually alleviated with additional specific therapeutic intervention. The event interferes with usual activities of daily living, causing discomfort but poses no significant or permanent risk of harm to the research participant.</nciodm:CDISCDefinition>
          <nciodm:PreferredTerm>Moderate Adverse Event</nciodm:PreferredTerm>
        </EnumeratedItem>
        <EnumeratedItem CodedValue="3" nciodm:ExtCodeID="C41340">
          <nciodm:CDISCSynonym>Grade 3</nciodm:CDISCSynonym>
          <nciodm:CDISCSynonym>3</nciodm:CDISCSynonym>
          <nciodm:CDISCDefinition>A type of adverse event that interrupts usual activities of daily living, or significantly affects clinical status, or may require intensive therapeutic intervention.</nciodm:CDISCDefinition>
          <nciodm:PreferredTerm>Severe Adverse Event</nciodm:PreferredTerm>
        </EnumeratedItem>
        <EnumeratedItem CodedValue="4" nciodm:ExtCodeID="C41337">
          <nciodm:CDISCSynonym>Grade 4</nciodm:CDISCSynonym>
          <nciodm:CDISCSynonym>4</nciodm:CDISCSynonym>
          <nciodm:CDISCSynonym>LIFE THREATENING</nciodm:CDISCSynonym>
          <nciodm:CDISCDefinition>An adverse event, and/or its immediate sequelae, which is associated with an imminent risk of death or which is associated with physical or mental disabilities that affect or limit the ability of a person to perform activities of daily living (eating, ambulation, toileting, etc.) See NCI Common Terminology Criteria for Adverse Events.</nciodm:CDISCDefinition>
          <nciodm:PreferredTerm>Life Threatening or Disabling Adverse Event</nciodm:PreferredTerm>
        </EnumeratedItem>
        <EnumeratedItem CodedValue="5" nciodm:ExtCodeID="C48275">
          <nciodm:CDISCSynonym>Grade 5</nciodm:CDISCSynonym>
          <nciodm:CDISCSynonym>5</nciodm:CDISCSynonym>
          <nciodm:CDISCSynonym>FATAL</nciodm:CDISCSynonym>
          <nciodm:CDISCDefinition>The termination of life as a result of an adverse event. (NCI)</nciodm:CDISCDefinition>
          <nciodm:PreferredTerm>Death Related to Adverse Event</nciodm:PreferredTerm>
        </EnumeratedItem>
        <nciodm:CDISCSubmissionValue>TOXGR</nciodm:CDISCSubmissionValue>
        <nciodm:CDISCSynonym>Common Terminology Criteria for Adverse Events</nciodm:CDISCSynonym>
        <nciodm:PreferredTerm>CDISC SDTM Common Terminology Criteria for Adverse Event Grade Terminology</nciodm:PreferredTerm>
      </CodeList>
      