<CodeList xmlns="http://www.cdisc.org/ns/odm/v1.3" xmlns:nciodm="http://ncicb.nci.nih.gov/xml/odm/EVS/CDISC" xmlns:xs="http://www.w3.org/2001/XMLSchema-instance" OID="CL.C66783.SOC" Name="CDISC System Organ Class" DataType="text" nciodm:ExtCodeID="C66783" nciodm:CodeListExtensible="No">
        <Description>
          <TranslatedText xml:lang="en">Terms at the highest level of the CDISC system organ class terminology.</TranslatedText>
        </Description>
        <EnumeratedItem CodedValue="BLOOD AND LYMPHATIC SYSTEM DISORDERS" nciodm:ExtCodeID="C35814">
          <nciodm:CDISCDefinition>Any deviation from the normal structure or function of the blood or lymphatic system that is manifested by a characteristic set of symptoms and signs. (NCI)</nciodm:CDISCDefinition>
          <nciodm:PreferredTerm>Hematopoietic and Lymphoid System Disorder</nciodm:PreferredTerm>
        </EnumeratedItem>
        <EnumeratedItem CodedValue="CARDIAC DISORDERS" nciodm:ExtCodeID="C3079">
          <nciodm:CDISCDefinition>Any deviation from the normal structure or function of the cardiac system that is manifested by a characteristic set of symptoms and signs. (NCI)</nciodm:CDISCDefinition>
          <nciodm:PreferredTerm>Heart Disorder</nciodm:PreferredTerm>
        </EnumeratedItem>
        <EnumeratedItem CodedValue="CONGENITAL, FAMILIAL AND GENETIC DISORDERS" nciodm:ExtCodeID="C49399">
          <nciodm:CDISCDefinition>A class of disorders that encompasses conditions resulting from a congenital, familial hereditary trait or genetic abnormality as is manifested by a characteristic set of symptoms and signs. (NCI)</nciodm:CDISCDefinition>
          <nciodm:PreferredTerm>Congenital, Familial and Genetic Disorder Class</nciodm:PreferredTerm>
        </EnumeratedItem>
        <EnumeratedItem CodedValue="EAR AND LABYRINTH DISORDERS" nciodm:ExtCodeID="C49400">
          <nciodm:CDISCDefinition>Any deviation from the normal structure or function of the ear or labyrinth that is manifested by a characteristic set of symptoms and signs. (NCI)</nciodm:CDISCDefinition>
          <nciodm:PreferredTerm>Ear and Labyrinth Disorder Class</nciodm:PreferredTerm>
        </EnumeratedItem>
        <EnumeratedItem CodedValue="ENDOCRINE DISORDERS" nciodm:ExtCodeID="C3009">
          <nciodm:CDISCDefinition>Any deviation from the normal structure or function of the endocrine system that is manifested by a characteristic set of symptoms and signs. (NCI)</nciodm:CDISCDefinition>
          <nciodm:PreferredTerm>Endocrine Disorder</nciodm:PreferredTerm>
        </EnumeratedItem>
        <EnumeratedItem CodedValue="EYE DISORDERS" nciodm:ExtCodeID="C26767">
          <nciodm:CDISCDefinition>Any deviation from the normal structure or function of the eye that is manifested by a characteristic set of symptoms and signs. (NCI)</nciodm:CDISCDefinition>
          <nciodm:PreferredTerm>Eye Disorder</nciodm:PreferredTerm>
        </EnumeratedItem>
        <EnumeratedItem CodedValue="GASTROINTESTINAL DISORDERS" nciodm:ExtCodeID="C2990">
          <nciodm:CDISCDefinition>Diseases of the digestive tract (oral cavity to anus) and associated organs (salivary glands, liver, pancreas). (NCI)</nciodm:CDISCDefinition>
          <nciodm:PreferredTerm>Gastrointestinal Disorder</nciodm:PreferredTerm>
        </EnumeratedItem>
        <EnumeratedItem CodedValue="GENERAL DISORDERS AND ADMINISTRATION SITE CONDITIONS" nciodm:ExtCodeID="C49401">
          <nciodm:CDISCDefinition>A class of disorders that encompasses conditions of a general kind that result from a disease, the treatment of disease or administration of treatment at a particular site and are manifested by a characteristic set of symptoms and signs. (NCI)</nciodm:CDISCDefinition>
          <nciodm:PreferredTerm>General Disorders and Administration Site Conditions Class</nciodm:PreferredTerm>
        </EnumeratedItem>
        <EnumeratedItem CodedValue="HEPATOBILIARY DISORDERS" nciodm:ExtCodeID="C3959">
          <nciodm:CDISCDefinition>Any deviation from the normal structure or function of the liver or biliary tract that is manifested by a characteristic set of symptoms and signs. (NCI)</nciodm:CDISCDefinition>
          <nciodm:PreferredTerm>Hepatobiliary Disorder</nciodm:PreferredTerm>
        </EnumeratedItem>
        <EnumeratedItem CodedValue="IMMUNE SYSTEM DISORDERS" nciodm:ExtCodeID="C3507">
          <nciodm:CDISCDefinition>A disorder resulting from an abnormality in the immune system. -- 2003 (NCI)</nciodm:CDISCDefinition>
          <nciodm:PreferredTerm>Immune System Disorder</nciodm:PreferredTerm>
        </EnumeratedItem>
        <EnumeratedItem CodedValue="INFECTIONS AND INFESTATIONS" nciodm:ExtCodeID="C26726">
          <nciodm:CDISCDefinition>A disorder resulting from the presence and activity of a microbial, viral, or parasitic agent. It can be transmitted by direct or indirect contact. -- 2003 (NCI)</nciodm:CDISCDefinition>
          <nciodm:PreferredTerm>Infectious Disorder</nciodm:PreferredTerm>
        </EnumeratedItem>
        <EnumeratedItem CodedValue="INJURY, POISONING AND PROCEDURAL COMPLICATIONS" nciodm:ExtCodeID="C49402">
          <nciodm:CDISCDefinition>A class of disorders that encompasses conditions resulting from an injury, poisoning or procedure. (NCI)</nciodm:CDISCDefinition>
          <nciodm:PreferredTerm>Injury, Poisoning and Procedural Complication Class</nciodm:PreferredTerm>
        </EnumeratedItem>
        <EnumeratedItem CodedValue="INVESTIGATIONS" nciodm:ExtCodeID="C41198">
          <nciodm:CDISCDefinition>The act or process of a systematic and thorough examination; research, study; the process of inquiring into or following up, intended to develop facts. (NCI)</nciodm:CDISCDefinition>
          <nciodm:PreferredTerm>Investigation</nciodm:PreferredTerm>
        </EnumeratedItem>
        <EnumeratedItem CodedValue="METABOLISM AND NUTRITION DISORDERS" nciodm:ExtCodeID="C49403">
          <nciodm:CDISCDefinition>A class of disorders that encompasses conditions occurring as a result of metabolic dysfunction or deviation from the normal nutritional requirements. (NCI)</nciodm:CDISCDefinition>
          <nciodm:PreferredTerm>Metabolism and Nutrition Disorder Class</nciodm:PreferredTerm>
        </EnumeratedItem>
        <EnumeratedItem CodedValue="MUSCULOSKELETAL AND CONNECTIVE TISSUE DISORDERS" nciodm:ExtCodeID="C27574">
          <nciodm:CDISCDefinition>Any deviation from the normal structure or function of the musculoskeletal or connective tissue that is manifested by a characteristic set of symptoms and signs. (NCI)</nciodm:CDISCDefinition>
          <nciodm:PreferredTerm>Connective and Soft Tissue Disorder</nciodm:PreferredTerm>
        </EnumeratedItem>
        <EnumeratedItem CodedValue="NEOPLASMS BENIGN, MALIGNANT AND UNSPECIFIED (INCL CYSTS AND POLYPS)" nciodm:ExtCodeID="C3262">
          <nciodm:CDISCDefinition>An abnormal tissue growth resulted from uncontrolled cell proliferation. Benign neoplastic cells resemble normal cells without exhibiting significant cytologic atypia, while malignant ones exhibit overt signs such as dysplastic features, atypical mitotic figures, necrosis, nuclear pleomorphism, and anaplasia. Representative examples of benign neoplasms include papillomas, cystadenomas, and lipomas; malignant neoplasms include carcinomas, sarcomas, lymphomas, and leukemias. -- 2004 (NCI)</nciodm:CDISCDefinition>
          <nciodm:PreferredTerm>Neoplasm</nciodm:PreferredTerm>
        </EnumeratedItem>
        <EnumeratedItem CodedValue="NERVOUS SYSTEM DISORDERS" nciodm:ExtCodeID="C26835">
          <nciodm:CDISCDefinition>Any deviation from the normal structure or function of the nervous system that is manifested by a characteristic set of symptoms and signs. (NCI)</nciodm:CDISCDefinition>
          <nciodm:PreferredTerm>Nervous System Disorder</nciodm:PreferredTerm>
        </EnumeratedItem>
        <EnumeratedItem CodedValue="PREGNANCY, PUERPERIUM AND PERINATAL CONDITIONS" nciodm:ExtCodeID="C49404">
          <nciodm:CDISCDefinition>A class of conditions associated with pregnancy, puerperium and perinatal status. (NCI)</nciodm:CDISCDefinition>
          <nciodm:PreferredTerm>Pregnancy, Puerperium and Perinatal Condition Class</nciodm:PreferredTerm>
        </EnumeratedItem>
        <EnumeratedItem CodedValue="PSYCHIATRIC DISORDERS" nciodm:ExtCodeID="C2893">
          <nciodm:CDISCDefinition>Any deviation from the normal structure or function of the brain and a psychiatric condition, that results in an impairment of an individual's normal cognitive, emotional, or behavioral functioning, and is caused by physiological or psychosocial factors. (NCI)</nciodm:CDISCDefinition>
          <nciodm:PreferredTerm>Psychiatric Disorder</nciodm:PreferredTerm>
        </EnumeratedItem>
        <EnumeratedItem CodedValue="RENAL AND URINARY DISORDERS" nciodm:ExtCodeID="C3430">
          <nciodm:CDISCDefinition>Disorders of any part of the urologic system. (NCI)</nciodm:CDISCDefinition>
          <nciodm:PreferredTerm>Urinary System Disorder</nciodm:PreferredTerm>
        </EnumeratedItem>
        <EnumeratedItem CodedValue="REPRODUCTIVE SYSTEM AND BREAST DISORDERS" nciodm:ExtCodeID="C49405">
          <nciodm:CDISCDefinition>Any deviation from the normal structure or function of the reproductive system or breast that is manifested by a characteristic set of symptoms and signs. (NCI)</nciodm:CDISCDefinition>
          <nciodm:PreferredTerm>Reproductive System and Breast Disorder Class</nciodm:PreferredTerm>
        </EnumeratedItem>
        <EnumeratedItem CodedValue="RESPIRATORY, THORACIC AND MEDIASTINAL DISORDERS" nciodm:ExtCodeID="C27669">
          <nciodm:CDISCDefinition>Any deviation from the normal structure or function of the respiratory system including the thorax and mediastinum that is manifested by a characteristic set of symptoms and signs. (NCI)</nciodm:CDISCDefinition>
          <nciodm:PreferredTerm>Respiratory and Thoracic Disorder</nciodm:PreferredTerm>
        </EnumeratedItem>
        <EnumeratedItem CodedValue="SKIN AND SUBCUTANEOUS TISSUE DISORDERS" nciodm:ExtCodeID="C3371">
          <nciodm:CDISCDefinition>Any deviation from the normal structure or function of the skin or subcutaneous tissue that is manifested by a characteristic set of symptoms and signs.(NCI)</nciodm:CDISCDefinition>
          <nciodm:PreferredTerm>Skin Disorder</nciodm:PreferredTerm>
        </EnumeratedItem>
        <EnumeratedItem CodedValue="SOCIAL CIRCUMSTANCES" nciodm:ExtCodeID="C20188">
          <nciodm:CDISCDefinition>A set of concepts that results from or is influenced by criteria or activities associated with the social environment of a person. (NCI)</nciodm:CDISCDefinition>
          <nciodm:PreferredTerm>Social Circumstances</nciodm:PreferredTerm>
        </EnumeratedItem>
        <EnumeratedItem CodedValue="SURGICAL AND MEDICAL PROCEDURES" nciodm:ExtCodeID="C25218">
          <nciodm:CDISCDefinition>A particular course of action intended to achieve a result. (NCI)</nciodm:CDISCDefinition>
          <nciodm:PreferredTerm>Intervention or Procedure</nciodm:PreferredTerm>
        </EnumeratedItem>
        <EnumeratedItem CodedValue="VASCULAR DISORDERS" nciodm:ExtCodeID="C35117">
          <nciodm:CDISCDefinition>Any deviation from the normal structure or function of the vascular system that is manifested by a characteristic set of symptoms and signs. (NCI)</nciodm:CDISCDefinition>
          <nciodm:PreferredTerm>Vascular Disorder</nciodm:PreferredTerm>
        </EnumeratedItem>
        <nciodm:CDISCSubmissionValue>SOC</nciodm:CDISCSubmissionValue>
        <nciodm:CDISCSynonym>CDISC System Organ Class</nciodm:CDISCSynonym>
        <nciodm:PreferredTerm>CDISC SDTM System Organ Class Terminology</nciodm:PreferredTerm>
      </CodeList>
      