<CodeList xmlns="http://www.cdisc.org/ns/odm/v1.3" xmlns:nciodm="http://ncicb.nci.nih.gov/xml/odm/EVS/CDISC" xmlns:xs="http://www.w3.org/2001/XMLSchema-instance" OID="CL.C74457.RACE" Name="Race" DataType="text" nciodm:ExtCodeID="C74457" nciodm:CodeListExtensible="Yes">
        <Description>
          <TranslatedText xml:lang="en">Terminology codelist used to identify the race of an individual within the Clinical Data Interchange Standards Consortium Study Data Tabulation Model.</TranslatedText>
        </Description>
        <EnumeratedItem CodedValue="BLACK OR AFRICAN AMERICAN" nciodm:ExtCodeID="C16352">
          <nciodm:CDISCDefinition>A person having origins in any of the black racial groups of Africa. Terms such as "Haitian" or "Negro" can be used in addition to "Black or African American." (FDA)</nciodm:CDISCDefinition>
          <nciodm:PreferredTerm>African American</nciodm:PreferredTerm>
        </EnumeratedItem>
        <EnumeratedItem CodedValue="AMERICAN INDIAN OR ALASKA NATIVE" nciodm:ExtCodeID="C41259">
          <nciodm:CDISCDefinition>A person having origins in any of the original peoples of North and South America (including Central America), and who maintains tribal affiliation or community attachment. (FDA)</nciodm:CDISCDefinition>
          <nciodm:PreferredTerm>American Indian or Alaska Native</nciodm:PreferredTerm>
        </EnumeratedItem>
        <EnumeratedItem CodedValue="ASIAN" nciodm:ExtCodeID="C41260">
          <nciodm:CDISCDefinition>A person having origins in any of the original peoples of the Far East, Southeast Asia, or the Indian subcontinent including, for example, Cambodia, China, India, Japan, Korea, Malaysia, Pakistan, the Philippine Islands, Thailand, and Vietnam. (FDA)</nciodm:CDISCDefinition>
          <nciodm:PreferredTerm>Asian</nciodm:PreferredTerm>
        </EnumeratedItem>
        <EnumeratedItem CodedValue="NATIVE HAWAIIAN OR OTHER PACIFIC ISLANDER" nciodm:ExtCodeID="C41219">
          <nciodm:CDISCDefinition>Denotes a person having origins in any of the original peoples of Hawaii, Guam, Samoa, or other Pacific Islands. The term covers particularly people who identify themselves as part-Hawaiian, Native Hawaiian, Guamanian or Chamorro, Carolinian, Samoan, Chuu. (FDA)</nciodm:CDISCDefinition>
          <nciodm:PreferredTerm>Native Hawaiian or Other Pacific Islander</nciodm:PreferredTerm>
        </EnumeratedItem>
        <EnumeratedItem CodedValue="WHITE" nciodm:ExtCodeID="C41261">
          <nciodm:CDISCDefinition>Denotes a person with European, Middle Eastern, or North African ancestral origin who identifies, or is identified, as White. (FDA)</nciodm:CDISCDefinition>
          <nciodm:PreferredTerm>White</nciodm:PreferredTerm>
        </EnumeratedItem>
        <nciodm:CDISCSubmissionValue>RACE</nciodm:CDISCSubmissionValue>
        <nciodm:CDISCSynonym>Race</nciodm:CDISCSynonym>
        <nciodm:PreferredTerm>CDISC SDTM Race Terminology</nciodm:PreferredTerm>
      </CodeList>
      