<CodeList xmlns="http://www.cdisc.org/ns/odm/v1.3" xmlns:nciodm="http://ncicb.nci.nih.gov/xml/odm/EVS/CDISC" xmlns:xs="http://www.w3.org/2001/XMLSchema-instance" OID="CL.C85491.MICROORG" Name="Microorganism" DataType="text" nciodm:ExtCodeID="C85491" nciodm:CodeListExtensible="Yes">
        <Description>
          <TranslatedText xml:lang="en">Microorganisms, bacteria, fungi and other organisms.</TranslatedText>
        </Description>
        <EnumeratedItem CodedValue="ABIOTROPHIA DEFECTIVA" nciodm:ExtCodeID="C86078">
          <nciodm:CDISCDefinition>Any bacterial organism that can be assigned to the species Abiotrophia defectiva.</nciodm:CDISCDefinition>
          <nciodm:PreferredTerm>Abiotrophia defectiva</nciodm:PreferredTerm>
        </EnumeratedItem>
        <EnumeratedItem CodedValue="ABIOTROPHIA" nciodm:ExtCodeID="C86077">
          <nciodm:CDISCDefinition>Any bacteria that is not assigned to the species level but can be assigned to the Abiotrophia genus level.</nciodm:CDISCDefinition>
          <nciodm:PreferredTerm>Abiotrophia</nciodm:PreferredTerm>
        </EnumeratedItem>
        <EnumeratedItem CodedValue="ACHROMOBACTER DENITRIFICANS" nciodm:ExtCodeID="C86080">
          <nciodm:CDISCSynonym>ALCALIGENES DENITRIFICANS</nciodm:CDISCSynonym>
          <nciodm:CDISCDefinition>Any bacterial organism that can be assigned to the species Achromobacter denitrificans.</nciodm:CDISCDefinition>
          <nciodm:PreferredTerm>Achromobacter denitrificans</nciodm:PreferredTerm>
        </EnumeratedItem>
        <EnumeratedItem CodedValue="ACHROMOBACTER PIECHAUDII" nciodm:ExtCodeID="C86081">
          <nciodm:CDISCDefinition>Any bacterial organism that can be assigned to the species Achromobacter piechaudii.</nciodm:CDISCDefinition>
          <nciodm:PreferredTerm>Achromobacter piechaudii</nciodm:PreferredTerm>
        </EnumeratedItem>
        <EnumeratedItem CodedValue="ACHROMOBACTER" nciodm:ExtCodeID="C86079">
          <nciodm:CDISCDefinition>Any bacteria that is not assigned to the species level but can be assigned to the Achromobacter genus level.</nciodm:CDISCDefinition>
          <nciodm:PreferredTerm>Achromobacter</nciodm:PreferredTerm>
        </EnumeratedItem>
        <EnumeratedItem CodedValue="ACHROMOBACTER XYLOSOXIDANS" nciodm:ExtCodeID="C86082">
          <nciodm:CDISCSynonym>ALCALIGENES XYLOSOXIDANS</nciodm:CDISCSynonym>
          <nciodm:CDISCDefinition>Any bacterial organism that can be assigned to the species Achromobacter xylosoxidans.</nciodm:CDISCDefinition>
          <nciodm:PreferredTerm>Achromobacter xylosoxidans</nciodm:PreferredTerm>
        </EnumeratedItem>
        <EnumeratedItem CodedValue="ACIDAMINOCOCCUS FERMENTANS" nciodm:ExtCodeID="C86084">
          <nciodm:CDISCDefinition>Any bacterial organism that can be assigned to the species Acidaminococcus fermentans.</nciodm:CDISCDefinition>
          <nciodm:PreferredTerm>Acidaminococcus fermentans</nciodm:PreferredTerm>
        </EnumeratedItem>
        <EnumeratedItem CodedValue="ACIDAMINOCOCCUS" nciodm:ExtCodeID="C86083">
          <nciodm:CDISCDefinition>Any bacteria that is not assigned to the species level but can be assigned to the Acidaminococcus genus level.</nciodm:CDISCDefinition>
          <nciodm:PreferredTerm>Acidaminococcus</nciodm:PreferredTerm>
        </EnumeratedItem>
        <EnumeratedItem CodedValue="ACIDOVORAX DELAFIELDII" nciodm:ExtCodeID="C86086">
          <nciodm:CDISCDefinition>Any bacterial organism that can be assigned to the species Acidovorax delafieldii.</nciodm:CDISCDefinition>
          <nciodm:PreferredTerm>Acidovorax delafieldii</nciodm:PreferredTerm>
        </EnumeratedItem>
        <EnumeratedItem CodedValue="ACIDOVORAX FACILIS" nciodm:ExtCodeID="C86087">
          <nciodm:CDISCDefinition>Any bacterial organism that can be assigned to the species Acidovorax facilis.</nciodm:CDISCDefinition>
          <nciodm:PreferredTerm>Acidovorax facilis</nciodm:PreferredTerm>
        </EnumeratedItem>
        <EnumeratedItem CodedValue="ACIDOVORAX" nciodm:ExtCodeID="C86085">
          <nciodm:CDISCDefinition>Any bacteria that is not assigned to the species level but can be assigned to the Acidovorax genus level.</nciodm:CDISCDefinition>
          <nciodm:PreferredTerm>Acidovorax</nciodm:PreferredTerm>
        </EnumeratedItem>
        <EnumeratedItem CodedValue="ACIDOVORAX TEMPERANS" nciodm:ExtCodeID="C86088">
          <nciodm:CDISCDefinition>Any bacterial organism that can be assigned to the species Acidovorax temperans.</nciodm:CDISCDefinition>
          <nciodm:PreferredTerm>Acidovorax temperans</nciodm:PreferredTerm>
        </EnumeratedItem>
        <EnumeratedItem CodedValue="ACINETOBACTER ANITRATUS" nciodm:ExtCodeID="C86089">
          <nciodm:CDISCSynonym>ACINETOBACTER BAUMANNII</nciodm:CDISCSynonym>
          <nciodm:CDISCSynonym>ACINETOBACTER CALCOACETICUS SUBSP. ANITRATUS</nciodm:CDISCSynonym>
          <nciodm:CDISCDefinition>Any bacterial organism that can be assigned to the species Acinetobacter anitratus.</nciodm:CDISCDefinition>
          <nciodm:PreferredTerm>Acinetobacter anitratus</nciodm:PreferredTerm>
        </EnumeratedItem>
        <EnumeratedItem CodedValue="ACINETOBACTER CALCOACETICUS" nciodm:ExtCodeID="C86090">
          <nciodm:CDISCDefinition>Any bacterial organism that can be assigned to the species Acinetobacter calcoaceticus.</nciodm:CDISCDefinition>
          <nciodm:PreferredTerm>Acinetobacter calcoaceticus</nciodm:PreferredTerm>
        </EnumeratedItem>
        <EnumeratedItem CodedValue="ACINETOBACTER CALCOACETICUS-BAUMANNII COMPLEX" nciodm:ExtCodeID="C86091">
          <nciodm:CDISCDefinition>A non-taxonomic grouping of bacteria assigned to the Acinetobacter genus that include the A. calcoaceticus and A. baumannii species.</nciodm:CDISCDefinition>
          <nciodm:PreferredTerm>Acinetobacter calcoaceticus/baumannii Complex</nciodm:PreferredTerm>
        </EnumeratedItem>
        <EnumeratedItem CodedValue="ACINETOBACTER HAEMOLYTICUS" nciodm:ExtCodeID="C86092">
          <nciodm:CDISCDefinition>Any bacterial organism that can be assigned to the species Acinetobacter haemolyticus.</nciodm:CDISCDefinition>
          <nciodm:PreferredTerm>Acinetobacter haemolyticus</nciodm:PreferredTerm>
        </EnumeratedItem>
        <EnumeratedItem CodedValue="ACINETOBACTER JOHNSONII" nciodm:ExtCodeID="C86093">
          <nciodm:CDISCDefinition>Any bacterial organism that can be assigned to the species Acinetobacter johnsonii.</nciodm:CDISCDefinition>
          <nciodm:PreferredTerm>Acinetobacter johnsonii</nciodm:PreferredTerm>
        </EnumeratedItem>
        <EnumeratedItem CodedValue="ACINETOBACTER JUNII" nciodm:ExtCodeID="C86094">
          <nciodm:CDISCDefinition>Any bacterial organism that can be assigned to the species Acinetobacter junii.</nciodm:CDISCDefinition>
          <nciodm:PreferredTerm>Acinetobacter junii</nciodm:PreferredTerm>
        </EnumeratedItem>
        <EnumeratedItem CodedValue="ACINETOBACTER LWOFFII" nciodm:ExtCodeID="C86095">
          <nciodm:CDISCSynonym>ACINETOBACTER CALCOACETICUS SUBSP. LWOFFII</nciodm:CDISCSynonym>
          <nciodm:CDISCDefinition>Any bacterial organism that can be assigned to the species Acinetobacter lwoffii.</nciodm:CDISCDefinition>
          <nciodm:PreferredTerm>Acinetobacter lwoffii</nciodm:PreferredTerm>
        </EnumeratedItem>
        <EnumeratedItem CodedValue="ACINETOBACTER RADIORESISTENS" nciodm:ExtCodeID="C86096">
          <nciodm:CDISCDefinition>Any bacterial organism that can be assigned to the species Acinetobacter radioresistens.</nciodm:CDISCDefinition>
          <nciodm:PreferredTerm>Acinetobacter radioresistens</nciodm:PreferredTerm>
        </EnumeratedItem>
        <EnumeratedItem CodedValue="ACINETOBACTER" nciodm:ExtCodeID="C76200">
          <nciodm:CDISCDefinition>Any bacteria that is not assigned to the species level but can be assigned to the Acinetobacter genus level.</nciodm:CDISCDefinition>
          <nciodm:PreferredTerm>Acinetobacter</nciodm:PreferredTerm>
        </EnumeratedItem>
        <EnumeratedItem CodedValue="ACTINOBACILLUS ACTINOMYCETEMCOMITANS" nciodm:ExtCodeID="C86098">
          <nciodm:CDISCSynonym>CDC GROUP HB-3</nciodm:CDISCSynonym>
          <nciodm:CDISCDefinition>Any bacterial organism that can be assigned to the species Actinobacillus actinomycetemcomitans.</nciodm:CDISCDefinition>
          <nciodm:PreferredTerm>Actinobacillus actinomycetemcomitans</nciodm:PreferredTerm>
        </EnumeratedItem>
        <EnumeratedItem CodedValue="ACTINOBACILLUS EQUULI" nciodm:ExtCodeID="C86099">
          <nciodm:CDISCDefinition>Any bacterial organism that can be assigned to the species Actinobacillus equuli.</nciodm:CDISCDefinition>
          <nciodm:PreferredTerm>Actinobacillus equuli</nciodm:PreferredTerm>
        </EnumeratedItem>
        <EnumeratedItem CodedValue="ACTINOBACILLUS LIGNIERSII" nciodm:ExtCodeID="C86100">
          <nciodm:CDISCDefinition>Any bacterial organism that can be assigned to the species Actinobacillus ligniersii.</nciodm:CDISCDefinition>
          <nciodm:PreferredTerm>Actinobacillus ligniersii</nciodm:PreferredTerm>
        </EnumeratedItem>
        <EnumeratedItem CodedValue="ACTINOBACILLUS PLEUROPNEUMONIAE" nciodm:ExtCodeID="C86101">
          <nciodm:CDISCSynonym>HAEMOPHILUS PLEUROPNEUMONIAE</nciodm:CDISCSynonym>
          <nciodm:CDISCDefinition>Any bacterial organism that can be assigned to the species Actinobacillus pleuropneumoniae.</nciodm:CDISCDefinition>
          <nciodm:PreferredTerm>Actinobacillus pleuropneumoniae</nciodm:PreferredTerm>
        </EnumeratedItem>
        <EnumeratedItem CodedValue="ACTINOBACILLUS" nciodm:ExtCodeID="C86097">
          <nciodm:CDISCDefinition>Any bacteria that is not assigned to the species level but can be assigned to the Actinobacillus genus level.</nciodm:CDISCDefinition>
          <nciodm:PreferredTerm>Actinobacillus</nciodm:PreferredTerm>
        </EnumeratedItem>
        <EnumeratedItem CodedValue="ACTINOBACILLUS SUIS" nciodm:ExtCodeID="C86102">
          <nciodm:CDISCDefinition>Any bacterial organism that can be assigned to the species Actinobacillus suis.</nciodm:CDISCDefinition>
          <nciodm:PreferredTerm>Actinobacillus suis</nciodm:PreferredTerm>
        </EnumeratedItem>
        <EnumeratedItem CodedValue="ACTINOBACILLUS UREAE" nciodm:ExtCodeID="C86103">
          <nciodm:CDISCSynonym>PASTEURELLA UREAE</nciodm:CDISCSynonym>
          <nciodm:CDISCDefinition>Any bacterial organism that can be assigned to the species Actinobacillus ureae.</nciodm:CDISCDefinition>
          <nciodm:PreferredTerm>Actinobacillus ureae</nciodm:PreferredTerm>
        </EnumeratedItem>
        <EnumeratedItem CodedValue="ACTINOMADURA MADURAE" nciodm:ExtCodeID="C86105">
          <nciodm:CDISCDefinition>Any bacterial organism that can be assigned to the species Actinomadura madurae.</nciodm:CDISCDefinition>
          <nciodm:PreferredTerm>Actinomadura madurae</nciodm:PreferredTerm>
        </EnumeratedItem>
        <EnumeratedItem CodedValue="ACTINOMADURA PELLETIERI" nciodm:ExtCodeID="C86106">
          <nciodm:CDISCDefinition>Any bacterial organism that can be assigned to the species Actinomadura pelletieri.</nciodm:CDISCDefinition>
          <nciodm:PreferredTerm>Actinomadura pelletieri</nciodm:PreferredTerm>
        </EnumeratedItem>
        <EnumeratedItem CodedValue="ACTINOMADURA" nciodm:ExtCodeID="C86104">
          <nciodm:CDISCDefinition>Any bacteria that is not assigned to the species level but can be assigned to the Actinomadura genus level.</nciodm:CDISCDefinition>
          <nciodm:PreferredTerm>Actinomadura</nciodm:PreferredTerm>
        </EnumeratedItem>
        <EnumeratedItem CodedValue="ACTINOMYCES BOVIS" nciodm:ExtCodeID="C86107">
          <nciodm:CDISCSynonym>PROACTINOMYCES BOVIS</nciodm:CDISCSynonym>
          <nciodm:CDISCSynonym>SPHAEROTILUS BOVIS</nciodm:CDISCSynonym>
          <nciodm:CDISCSynonym>CLADOTHRIX BOVIS</nciodm:CDISCSynonym>
          <nciodm:CDISCSynonym>STREPTOTHRIX BOVIS</nciodm:CDISCSynonym>
          <nciodm:CDISCSynonym>NOCARDIA BOVIS</nciodm:CDISCSynonym>
          <nciodm:CDISCSynonym>ACTINOCLADOTHRIX BOVIS</nciodm:CDISCSynonym>
          <nciodm:CDISCSynonym>OOSPORA BOVIS</nciodm:CDISCSynonym>
          <nciodm:CDISCSynonym>SARCOMYCES BOVIS</nciodm:CDISCSynonym>
          <nciodm:CDISCSynonym>DISCOMYCES BOVIS</nciodm:CDISCSynonym>
          <nciodm:CDISCDefinition>Any bacterial organism that can be assigned to the species Actinomyces bovis.</nciodm:CDISCDefinition>
          <nciodm:PreferredTerm>Actinomyces bovis</nciodm:PreferredTerm>
        </EnumeratedItem>
        <EnumeratedItem CodedValue="ACTINOMYCES ISRAELII" nciodm:ExtCodeID="C86108">
          <nciodm:CDISCDefinition>Any bacterial organism that can be assigned to the species Actinomyces israelii.</nciodm:CDISCDefinition>
          <nciodm:PreferredTerm>Actinomyces israelii</nciodm:PreferredTerm>
        </EnumeratedItem>
        <EnumeratedItem CodedValue="ACTINOMYCES MEYERII" nciodm:ExtCodeID="C86109">
          <nciodm:CDISCDefinition>Any bacterial organism that can be assigned to the species Actinomyces meyerii.</nciodm:CDISCDefinition>
          <nciodm:PreferredTerm>Actinomyces meyerii</nciodm:PreferredTerm>
        </EnumeratedItem>
        <EnumeratedItem CodedValue="ACTINOMYCES NAESLUNDII" nciodm:ExtCodeID="C86110">
          <nciodm:CDISCDefinition>Any bacterial organism that can be assigned to the species Actinomyces naseslundii.</nciodm:CDISCDefinition>
          <nciodm:PreferredTerm>Actinomyces naseslundii</nciodm:PreferredTerm>
        </EnumeratedItem>
        <EnumeratedItem CodedValue="ACTINOMYCES NEUII" nciodm:ExtCodeID="C86111">
          <nciodm:CDISCDefinition>Any bacterial organism that can be assigned to the species Actinomyces neuii.</nciodm:CDISCDefinition>
          <nciodm:PreferredTerm>Actinomyces neuii</nciodm:PreferredTerm>
        </EnumeratedItem>
        <EnumeratedItem CodedValue="ACTINOMYCES ODONTOLYTICUS" nciodm:ExtCodeID="C86112">
          <nciodm:CDISCDefinition>Any bacterial organism that can be assigned to the species Actinomyces odontolyticus.</nciodm:CDISCDefinition>
          <nciodm:PreferredTerm>Actinomyces odontolyticus</nciodm:PreferredTerm>
        </EnumeratedItem>
        <EnumeratedItem CodedValue="ACTINOMYCES RADINGAE" nciodm:ExtCodeID="C86113">
          <nciodm:CDISCDefinition>Any bacterial organism that can be assigned to the species Actinomyces radingae.</nciodm:CDISCDefinition>
          <nciodm:PreferredTerm>Actinomyces radingae</nciodm:PreferredTerm>
        </EnumeratedItem>
        <EnumeratedItem CodedValue="ACTINOMYCES" nciodm:ExtCodeID="C76201">
          <nciodm:CDISCDefinition>Any bacteria that is not assigned to the species level but can be assigned to the Actinomyces genus level.</nciodm:CDISCDefinition>
          <nciodm:PreferredTerm>Actinomyces</nciodm:PreferredTerm>
        </EnumeratedItem>
        <EnumeratedItem CodedValue="ACTINOMYCES TURICENSIS" nciodm:ExtCodeID="C86114">
          <nciodm:CDISCDefinition>Any bacterial organism that can be assigned to the species Actinomyces turicensis.</nciodm:CDISCDefinition>
          <nciodm:PreferredTerm>Actinomyces turicensis</nciodm:PreferredTerm>
        </EnumeratedItem>
        <EnumeratedItem CodedValue="ACTINOMYCES VISCOSUS" nciodm:ExtCodeID="C86115">
          <nciodm:CDISCDefinition>Any bacterial organism that can be assigned to the species Actinomyces viscosus.</nciodm:CDISCDefinition>
          <nciodm:PreferredTerm>Actinomyces viscosus</nciodm:PreferredTerm>
        </EnumeratedItem>
        <EnumeratedItem CodedValue="AEROBIC GRAM-NEGATIVE BACILLUS" nciodm:ExtCodeID="C86116">
          <nciodm:CDISCSynonym>AEROBIC GRAM-NEGATIVE ROD</nciodm:CDISCSynonym>
          <nciodm:CDISCDefinition>Any rod-shaped bacteria with an oxygen-based metabolism and has a cell wall that contains low levels of peptidoglycan and stains pink with the Gram staining technique.</nciodm:CDISCDefinition>
          <nciodm:PreferredTerm>Aerobic Gram Negative Bacillus</nciodm:PreferredTerm>
        </EnumeratedItem>
        <EnumeratedItem CodedValue="AEROBIC GRAM-NEGATIVE COCCUS" nciodm:ExtCodeID="C86117">
          <nciodm:CDISCDefinition>Any spherical-shaped bacteria with an oxygen-based metabolism and a cell wall that contains low levels of peptidoglycan and stains pink with the Gram staining technique.</nciodm:CDISCDefinition>
          <nciodm:PreferredTerm>Aerobic Gram Negative Coccus</nciodm:PreferredTerm>
        </EnumeratedItem>
        <EnumeratedItem CodedValue="AEROBIC GRAM-POSITIVE BACILLUS" nciodm:ExtCodeID="C86118">
          <nciodm:CDISCSynonym>AEROBIC GRAM-POSITIVE ROD</nciodm:CDISCSynonym>
          <nciodm:CDISCDefinition>Any rod-shaped bacteria with an oxygen-based metabolism and has a peptidoglycan-rich cell wall that stains dark purple with the Gram staining technique.</nciodm:CDISCDefinition>
          <nciodm:PreferredTerm>Aerobic Gram Positive Bacillus</nciodm:PreferredTerm>
        </EnumeratedItem>
        <EnumeratedItem CodedValue="AEROBIC GRAM-POSITIVE COCCUS" nciodm:ExtCodeID="C86119">
          <nciodm:CDISCDefinition>Any spherical-shaped bacteria with an oxygen-based metabolism and a peptidoglycan-rich cell wall that stains dark purple with the Gram staining technique.</nciodm:CDISCDefinition>
          <nciodm:PreferredTerm>Aerobic Gram Positive Coccus</nciodm:PreferredTerm>
        </EnumeratedItem>
        <EnumeratedItem CodedValue="AEROBIC STREPTOCOCCUS" nciodm:ExtCodeID="C86120">
          <nciodm:CDISCDefinition>Any bacteria assigned to the genus Streptococcus that requires oxygen to grow or respirate.</nciodm:CDISCDefinition>
          <nciodm:PreferredTerm>Aerobic Streptococcus</nciodm:PreferredTerm>
        </EnumeratedItem>
        <EnumeratedItem CodedValue="AEROCOCCUS" nciodm:ExtCodeID="C86121">
          <nciodm:CDISCSynonym>GAFFKYA SPECIES</nciodm:CDISCSynonym>
          <nciodm:CDISCDefinition>Any bacteria that is not assigned to the species level but can be assigned to the Aerococcus genus level.</nciodm:CDISCDefinition>
          <nciodm:PreferredTerm>Aerococcus</nciodm:PreferredTerm>
        </EnumeratedItem>
        <EnumeratedItem CodedValue="AEROCOCCUS URINAE" nciodm:ExtCodeID="C86122">
          <nciodm:CDISCDefinition>Any bacterial organism that can be assigned to the species Aerococcus urinae.</nciodm:CDISCDefinition>
          <nciodm:PreferredTerm>Aerococcus urinae</nciodm:PreferredTerm>
        </EnumeratedItem>
        <EnumeratedItem CodedValue="AEROCOCCUS VIRIDANS" nciodm:ExtCodeID="C86123">
          <nciodm:CDISCDefinition>Any bacterial organism that can be assigned to the species Aerococcus viridans.</nciodm:CDISCDefinition>
          <nciodm:PreferredTerm>Aerococcus viridans</nciodm:PreferredTerm>
        </EnumeratedItem>
        <EnumeratedItem CodedValue="AEROMONAS HYDROPHILA" nciodm:ExtCodeID="C86125">
          <nciodm:CDISCSynonym>AEROMONAS HYDROPHILA GROUP</nciodm:CDISCSynonym>
          <nciodm:CDISCDefinition>Any bacterial organism that can be assigned to the species Aeromonas hydrophila.</nciodm:CDISCDefinition>
          <nciodm:PreferredTerm>Aeromonas hydrophila</nciodm:PreferredTerm>
        </EnumeratedItem>
        <EnumeratedItem CodedValue="AEROMONAS JANDAEI" nciodm:ExtCodeID="C86126">
          <nciodm:CDISCDefinition>Any bacterial organism that can be assigned to the species Aeromonas jandaei.</nciodm:CDISCDefinition>
          <nciodm:PreferredTerm>Aeromonas jandaei</nciodm:PreferredTerm>
        </EnumeratedItem>
        <EnumeratedItem CodedValue="AEROMONAS PUNCTATA" nciodm:ExtCodeID="C86127">
          <nciodm:CDISCSynonym>AEROMONAS CAVIAE</nciodm:CDISCSynonym>
          <nciodm:CDISCDefinition>Any bacterial organism that can be assigned to the species Aeromonas punctata.</nciodm:CDISCDefinition>
          <nciodm:PreferredTerm>Aeromonas punctata</nciodm:PreferredTerm>
        </EnumeratedItem>
        <EnumeratedItem CodedValue="AEROMONAS SALMONICIDA" nciodm:ExtCodeID="C86128">
          <nciodm:CDISCDefinition>Any bacterial organism that can be assigned to the species Aeromonas salmonicida.</nciodm:CDISCDefinition>
          <nciodm:PreferredTerm>Aeromonas salmonicida</nciodm:PreferredTerm>
        </EnumeratedItem>
        <EnumeratedItem CodedValue="AEROMONAS SCHUBERTII" nciodm:ExtCodeID="C86129">
          <nciodm:CDISCDefinition>Any bacterial organism that can be assigned to the species Aeromonas schubertii.</nciodm:CDISCDefinition>
          <nciodm:PreferredTerm>Aeromonas schubertii</nciodm:PreferredTerm>
        </EnumeratedItem>
        <EnumeratedItem CodedValue="AEROMONAS SOBRIA" nciodm:ExtCodeID="C86130">
          <nciodm:CDISCDefinition>Any bacterial organism that can be assigned to the species Aeromonas sobria.</nciodm:CDISCDefinition>
          <nciodm:PreferredTerm>Aeromonas sobria</nciodm:PreferredTerm>
        </EnumeratedItem>
        <EnumeratedItem CodedValue="AEROMONAS" nciodm:ExtCodeID="C86124">
          <nciodm:CDISCDefinition>Any bacteria that is not assigned to the species level but can be assigned to the Aeromonas genus level.</nciodm:CDISCDefinition>
          <nciodm:PreferredTerm>Aeromonas</nciodm:PreferredTerm>
        </EnumeratedItem>
        <EnumeratedItem CodedValue="AEROMONAS VERONII" nciodm:ExtCodeID="C86131">
          <nciodm:CDISCDefinition>Any bacterial organism that can be assigned to the species Aeromonas veronii.</nciodm:CDISCDefinition>
          <nciodm:PreferredTerm>Aeromonas veronii</nciodm:PreferredTerm>
        </EnumeratedItem>
        <EnumeratedItem CodedValue="AGGREGATIBACTER ACTINOMYCETEMCOMITANS" nciodm:ExtCodeID="C86133">
          <nciodm:CDISCSynonym>HAEMOPHILUS ACTINOMYCETEMCOMITANS</nciodm:CDISCSynonym>
          <nciodm:CDISCDefinition>Any bacterial organism that can be assigned to the species Aggregatibacter actinomycetemcomitans.</nciodm:CDISCDefinition>
          <nciodm:PreferredTerm>Aggregatibacter actinomycetemcomitans</nciodm:PreferredTerm>
        </EnumeratedItem>
        <EnumeratedItem CodedValue="AGGREGATIBACTER APHROPHILUS" nciodm:ExtCodeID="C86134">
          <nciodm:CDISCSynonym>CDC GROUP HB-2</nciodm:CDISCSynonym>
          <nciodm:CDISCSynonym>HAEMOPHILUS PARAPHROPHILUS</nciodm:CDISCSynonym>
          <nciodm:CDISCSynonym>BETA-LACTAMASE NEGATIVE HAEMOPHILUS PARAPHROPHILUS</nciodm:CDISCSynonym>
          <nciodm:CDISCSynonym>HAEMOPHILUS APHROPHILUS</nciodm:CDISCSynonym>
          <nciodm:CDISCDefinition>Any bacterial organism that can be assigned to the species Aggregatibacter aphrophilus.</nciodm:CDISCDefinition>
          <nciodm:PreferredTerm>Aggregatibacter aphrophilus</nciodm:PreferredTerm>
        </EnumeratedItem>
        <EnumeratedItem CodedValue="AGGREGATIBACTER SEGNIS" nciodm:ExtCodeID="C86135">
          <nciodm:CDISCSynonym>HAEMOPHILUS SEGNIS</nciodm:CDISCSynonym>
          <nciodm:CDISCDefinition>Any bacterial organism that can be assigned to the species Aggregatibacter segnis.</nciodm:CDISCDefinition>
          <nciodm:PreferredTerm>Aggregatibacter segnis</nciodm:PreferredTerm>
        </EnumeratedItem>
        <EnumeratedItem CodedValue="AGGREGATIBACTER" nciodm:ExtCodeID="C86132">
          <nciodm:CDISCDefinition>Any bacteria that is not assigned to the species level but can be assigned to the Aggregatibacter genus level.</nciodm:CDISCDefinition>
          <nciodm:PreferredTerm>Aggregatibacter</nciodm:PreferredTerm>
        </EnumeratedItem>
        <EnumeratedItem CodedValue="AGROBACTERIUM RADIOBACTER" nciodm:ExtCodeID="C86137">
          <nciodm:CDISCDefinition>Any bacterial organism that can be assigned to the species Agrobacterium radiobacter.</nciodm:CDISCDefinition>
          <nciodm:PreferredTerm>Agrobacterium radiobacter</nciodm:PreferredTerm>
        </EnumeratedItem>
        <EnumeratedItem CodedValue="AGROBACTERIUM" nciodm:ExtCodeID="C86011">
          <nciodm:CDISCDefinition>Any bacteria that is not assigned to the species level but can be assigned to the Agrobacterium genus level.</nciodm:CDISCDefinition>
          <nciodm:PreferredTerm>Agrobacterium</nciodm:PreferredTerm>
        </EnumeratedItem>
        <EnumeratedItem CodedValue="AGROBACTERIUM TUMEFACIENS" nciodm:ExtCodeID="C86138">
          <nciodm:CDISCSynonym>CDC GROUP VD-3</nciodm:CDISCSynonym>
          <nciodm:CDISCSynonym>RHIZOBIUM RADIOBACTER</nciodm:CDISCSynonym>
          <nciodm:CDISCDefinition>Any bacterial organism that can be assigned to the species Agrobacterium tumefaciens.</nciodm:CDISCDefinition>
          <nciodm:PreferredTerm>Agrobacterium tumefaciens</nciodm:PreferredTerm>
        </EnumeratedItem>
        <EnumeratedItem CodedValue="ALCALIGENES FAECALIS" nciodm:ExtCodeID="C86140">
          <nciodm:CDISCSynonym>ALCALIGENES ODORANS</nciodm:CDISCSynonym>
          <nciodm:CDISCDefinition>Any bacterial organism that can be assigned to the species Alcaligenes faecalis.</nciodm:CDISCDefinition>
          <nciodm:PreferredTerm>Alcaligenes faecalis</nciodm:PreferredTerm>
        </EnumeratedItem>
        <EnumeratedItem CodedValue="ALCALIGENES" nciodm:ExtCodeID="C86012">
          <nciodm:CDISCDefinition>Any bacteria that is not assigned to the species level but can be assigned to the Alcaligenes genus level.</nciodm:CDISCDefinition>
          <nciodm:PreferredTerm>Alcaligenes</nciodm:PreferredTerm>
        </EnumeratedItem>
        <EnumeratedItem CodedValue="ALISTIPES PUTREDINIS" nciodm:ExtCodeID="C86871">
          <nciodm:CDISCSynonym>BACTEROIDES PUTREDINIS</nciodm:CDISCSynonym>
          <nciodm:CDISCDefinition>Any bacterial organism that can be assigned to the species Alistipes putredinis.</nciodm:CDISCDefinition>
          <nciodm:PreferredTerm>Alistipes putredinis</nciodm:PreferredTerm>
        </EnumeratedItem>
        <EnumeratedItem CodedValue="ANAEROBIC GRAM-NEGATIVE BACILLUS" nciodm:ExtCodeID="C86142">
          <nciodm:CDISCSynonym>ANAEROBIC GRAM-NEGATIVE ROD</nciodm:CDISCSynonym>
          <nciodm:CDISCDefinition>Any rod-shaped bacteria that does not require oxygen to grow or respirate and has a cell wall that contains low levels of peptidoglycan and stains pink with the Gram staining technique.</nciodm:CDISCDefinition>
          <nciodm:PreferredTerm>Anaerobic Gram Negative Bacillus</nciodm:PreferredTerm>
        </EnumeratedItem>
        <EnumeratedItem CodedValue="ANAEROBIC GRAM-NEGATIVE COCCUS" nciodm:ExtCodeID="C86143">
          <nciodm:CDISCDefinition>Any spherical-shaped bacteria that does not require oxygen to grow or respirate and has a cell wall that contains low levels of peptidoglycan and stains pink with the Gram staining technique.</nciodm:CDISCDefinition>
          <nciodm:PreferredTerm>Anaerobic Gram Negative Coccus</nciodm:PreferredTerm>
        </EnumeratedItem>
        <EnumeratedItem CodedValue="ANAEROBIC GRAM-POSITIVE BACILLUS" nciodm:ExtCodeID="C86144">
          <nciodm:CDISCSynonym>ANAEROBIC GRAM-POSITIVE ROD</nciodm:CDISCSynonym>
          <nciodm:CDISCDefinition>Any rod-shaped bacteria that does not require oxygen to grow or respirate and has a peptidoglycan-rich cell wall that stains dark purple with the Gram staining technique.</nciodm:CDISCDefinition>
          <nciodm:PreferredTerm>Anaerobic Gram Positive Bacillus</nciodm:PreferredTerm>
        </EnumeratedItem>
        <EnumeratedItem CodedValue="ANAEROBIC GRAM-POSITIVE COCCUS" nciodm:ExtCodeID="C86145">
          <nciodm:CDISCDefinition>Any spherical-shaped bacteria that does not require oxygen to grow or respirate and has a peptidoglycan-rich cell wall that stains dark purple with the Gram staining technique.</nciodm:CDISCDefinition>
          <nciodm:PreferredTerm>Anaerobic Gram Positive Coccus</nciodm:PreferredTerm>
        </EnumeratedItem>
        <EnumeratedItem CodedValue="ANAEROBIC STREPTOCOCCUS" nciodm:ExtCodeID="C86146">
          <nciodm:CDISCDefinition>Any bacteria assigned to the genus Streptococcus that does not require oxygen to grow or respirate.</nciodm:CDISCDefinition>
          <nciodm:PreferredTerm>Anaerobic Streptococcus</nciodm:PreferredTerm>
        </EnumeratedItem>
        <EnumeratedItem CodedValue="ANAEROCOCCUS HYDROGENALIS" nciodm:ExtCodeID="C86874">
          <nciodm:CDISCSynonym>PEPTOSTREPTOCOCCUS HYDROGENALIS</nciodm:CDISCSynonym>
          <nciodm:CDISCDefinition>Any bacterial organism that can be assigned to the species Anaerococcus hydrogenalis.</nciodm:CDISCDefinition>
          <nciodm:PreferredTerm>Anaerococcus hydrogenalis</nciodm:PreferredTerm>
        </EnumeratedItem>
        <EnumeratedItem CodedValue="ANAEROCOCCUS PREVOTII" nciodm:ExtCodeID="C86875">
          <nciodm:CDISCDefinition>Any bacterial organism that can be assigned to the species Anaerococcus prevotii.</nciodm:CDISCDefinition>
          <nciodm:PreferredTerm>Anaerococcus prevotii</nciodm:PreferredTerm>
        </EnumeratedItem>
        <EnumeratedItem CodedValue="ANAEROCOCCUS" nciodm:ExtCodeID="C86872">
          <nciodm:CDISCDefinition>Any bacteria that is not assigned to the species level but can be assigned to the Anaerococcus genus level.</nciodm:CDISCDefinition>
          <nciodm:PreferredTerm>Anaerococcus</nciodm:PreferredTerm>
        </EnumeratedItem>
        <EnumeratedItem CodedValue="ANAEROCOCCUS TETRADIUS" nciodm:ExtCodeID="C86876">
          <nciodm:CDISCSynonym>GAFFKYA ANAEROBIA</nciodm:CDISCSynonym>
          <nciodm:CDISCSynonym>PEPTOSTREPTOTOCCUS TETRADIUS</nciodm:CDISCSynonym>
          <nciodm:CDISCDefinition>Any bacterial organism that can be assigned to the species Anaerococcus tetradius.</nciodm:CDISCDefinition>
          <nciodm:PreferredTerm>Anaerococcus tetradius</nciodm:PreferredTerm>
        </EnumeratedItem>
        <EnumeratedItem CodedValue="ANAEROCOCCUS VAGINALIS" nciodm:ExtCodeID="C86877">
          <nciodm:CDISCDefinition>Any bacterial organism that can be assigned to the species Anaerococcus vaginalis.</nciodm:CDISCDefinition>
          <nciodm:PreferredTerm>Anaerococcus vaginalis</nciodm:PreferredTerm>
        </EnumeratedItem>
        <EnumeratedItem CodedValue="ARCANOBACTERIUM BERNARDIAE" nciodm:ExtCodeID="C86148">
          <nciodm:CDISCDefinition>Any bacterial organism that can be assigned to the species Arcanobacterium bernardiae.</nciodm:CDISCDefinition>
          <nciodm:PreferredTerm>Arcanobacterium bernardiae</nciodm:PreferredTerm>
        </EnumeratedItem>
        <EnumeratedItem CodedValue="ARCANOBACTERIUM HAEMOLYTICUM" nciodm:ExtCodeID="C86149">
          <nciodm:CDISCSynonym>CORYNEBACTERIUM HAEMOLYTICUM</nciodm:CDISCSynonym>
          <nciodm:CDISCSynonym>CORYNEBACTERIUM HAEMOLYTICUS</nciodm:CDISCSynonym>
          <nciodm:CDISCDefinition>Any bacterial organism that can be assigned to the species Arcanobacterium haemolyticum.</nciodm:CDISCDefinition>
          <nciodm:PreferredTerm>Arcanobacterium haemolyticum</nciodm:PreferredTerm>
        </EnumeratedItem>
        <EnumeratedItem CodedValue="ARCANOBACTERIUM PYOGENES" nciodm:ExtCodeID="C86150">
          <nciodm:CDISCSynonym>ACTINOMYCES PYOGENES</nciodm:CDISCSynonym>
          <nciodm:CDISCSynonym>CORYNEBACTERIUM PYOGENES</nciodm:CDISCSynonym>
          <nciodm:CDISCDefinition>Any bacterial organism that can be assigned to the species Arcanobacterium pyogenes.</nciodm:CDISCDefinition>
          <nciodm:PreferredTerm>Arcanobacterium pyogenes</nciodm:PreferredTerm>
        </EnumeratedItem>
        <EnumeratedItem CodedValue="ARCANOBACTERIUM" nciodm:ExtCodeID="C86147">
          <nciodm:CDISCDefinition>Any bacteria that is not assigned to the species level but can be assigned to the Arcanobacterium genus level.</nciodm:CDISCDefinition>
          <nciodm:PreferredTerm>Arcanobacterium</nciodm:PreferredTerm>
        </EnumeratedItem>
        <EnumeratedItem CodedValue="ARCOBACTER BUTZLERI" nciodm:ExtCodeID="C86153">
          <nciodm:CDISCSynonym>CAMPYLOBACTER BUTZLERI</nciodm:CDISCSynonym>
          <nciodm:CDISCDefinition>Any bacterial organism that can be assigned to the species Arcobacter butzleri.</nciodm:CDISCDefinition>
          <nciodm:PreferredTerm>Arcobacter butzleri</nciodm:PreferredTerm>
        </EnumeratedItem>
        <EnumeratedItem CodedValue="ARCOBACTER CRYAEROPHILUS" nciodm:ExtCodeID="C86154">
          <nciodm:CDISCSynonym>CAMPYLOBACTER CRYAEROPHILUS</nciodm:CDISCSynonym>
          <nciodm:CDISCDefinition>Any bacterial organism that can be assigned to the species Arcobacter cryaerophilus.</nciodm:CDISCDefinition>
          <nciodm:PreferredTerm>Arcobacter cryaerophilus</nciodm:PreferredTerm>
        </EnumeratedItem>
        <EnumeratedItem CodedValue="ARCOBACTER" nciodm:ExtCodeID="C86152">
          <nciodm:CDISCDefinition>Any bacteria that is not assigned to the species level but can be assigned to the Arcobacter genus level.</nciodm:CDISCDefinition>
          <nciodm:PreferredTerm>Arcobacter</nciodm:PreferredTerm>
        </EnumeratedItem>
        <EnumeratedItem CodedValue="ARTHROBACTER" nciodm:ExtCodeID="C86155">
          <nciodm:CDISCDefinition>Any bacteria that is not assigned to the species level but can be assigned to the Arthrobacter genus level.</nciodm:CDISCDefinition>
          <nciodm:PreferredTerm>Arthrobacter</nciodm:PreferredTerm>
        </EnumeratedItem>
        <EnumeratedItem CodedValue="ATOPOBIUM MINUTUM" nciodm:ExtCodeID="C86156">
          <nciodm:CDISCSynonym>LACTOBACILLUS MINUTIS</nciodm:CDISCSynonym>
          <nciodm:CDISCSynonym>LACTOBACILLUS MINUTUS</nciodm:CDISCSynonym>
          <nciodm:CDISCDefinition>Any bacterial organism that can be assigned to the species Atopobium minutum.</nciodm:CDISCDefinition>
          <nciodm:PreferredTerm>Atopobium minutum</nciodm:PreferredTerm>
        </EnumeratedItem>
        <EnumeratedItem CodedValue="ATOPOBIUM PARVULUM" nciodm:ExtCodeID="C86157">
          <nciodm:CDISCSynonym>STREPTOCOCCUS PARVULUS</nciodm:CDISCSynonym>
          <nciodm:CDISCDefinition>Any bacterial organism that can be assigned to the species Atopobium parvulum.</nciodm:CDISCDefinition>
          <nciodm:PreferredTerm>Atopobium parvulum</nciodm:PreferredTerm>
        </EnumeratedItem>
        <EnumeratedItem CodedValue="AVIBACTERIUM PARAGALLINARUM" nciodm:ExtCodeID="C86158">
          <nciodm:CDISCSynonym>HAEMOPHILUS PARAGALLINARUM</nciodm:CDISCSynonym>
          <nciodm:CDISCDefinition>Any bacterial organism that can be assigned to the species Avibacterium paragallinarum.</nciodm:CDISCDefinition>
          <nciodm:PreferredTerm>Avibacterium paragallinarum</nciodm:PreferredTerm>
        </EnumeratedItem>
        <EnumeratedItem CodedValue="BACILLUS ALVEI" nciodm:ExtCodeID="C86159">
          <nciodm:CDISCDefinition>Any bacterial organism that can be assigned to the species Bacillus alvei.</nciodm:CDISCDefinition>
          <nciodm:PreferredTerm>Bacillus alvei</nciodm:PreferredTerm>
        </EnumeratedItem>
        <EnumeratedItem CodedValue="BACILLUS ANTHRACIS" nciodm:ExtCodeID="C86160">
          <nciodm:CDISCDefinition>Any bacterial organism that can be assigned to the species Bacillus anthracis.</nciodm:CDISCDefinition>
          <nciodm:PreferredTerm>Bacillus anthracis</nciodm:PreferredTerm>
        </EnumeratedItem>
        <EnumeratedItem CodedValue="BACILLUS CEREUS" nciodm:ExtCodeID="C86161">
          <nciodm:CDISCDefinition>Any bacterial organism that can be assigned to the species Bacillus cereus.</nciodm:CDISCDefinition>
          <nciodm:PreferredTerm>Bacillus cereus</nciodm:PreferredTerm>
        </EnumeratedItem>
        <EnumeratedItem CodedValue="BACILLUS LENTUS" nciodm:ExtCodeID="C86162">
          <nciodm:CDISCDefinition>Any bacterial organism that can be assigned to the species Bacillus lentus.</nciodm:CDISCDefinition>
          <nciodm:PreferredTerm>Bacillus lentus</nciodm:PreferredTerm>
        </EnumeratedItem>
        <EnumeratedItem CodedValue="BACILLUS LICHENIFORMIS" nciodm:ExtCodeID="C86163">
          <nciodm:CDISCDefinition>Any bacterial organism that can be assigned to the species Bacillus licheniformis.</nciodm:CDISCDefinition>
          <nciodm:PreferredTerm>Bacillus licheniformis</nciodm:PreferredTerm>
        </EnumeratedItem>
        <EnumeratedItem CodedValue="BACILLUS MEGATERIUM" nciodm:ExtCodeID="C86164">
          <nciodm:CDISCDefinition>Any bacterial organism that can be assigned to the species Bacillus megaterium.</nciodm:CDISCDefinition>
          <nciodm:PreferredTerm>Bacillus megaterium</nciodm:PreferredTerm>
        </EnumeratedItem>
        <EnumeratedItem CodedValue="BACILLUS MYCOIDES" nciodm:ExtCodeID="C86165">
          <nciodm:CDISCDefinition>Any bacterial organism that can be assigned to the species Bacillus mycoides.</nciodm:CDISCDefinition>
          <nciodm:PreferredTerm>Bacillus mycoides</nciodm:PreferredTerm>
        </EnumeratedItem>
        <EnumeratedItem CodedValue="BACILLUS POLYMYXA" nciodm:ExtCodeID="C86166">
          <nciodm:CDISCDefinition>Any bacterial organism that can be assigned to the species Bacillus polymyxa.</nciodm:CDISCDefinition>
          <nciodm:PreferredTerm>Bacillus polymyxa</nciodm:PreferredTerm>
        </EnumeratedItem>
        <EnumeratedItem CodedValue="BACILLUS" nciodm:ExtCodeID="C76202">
          <nciodm:CDISCDefinition>Any bacteria that is not assigned to the species level but can be assigned to the Bacillus genus level.</nciodm:CDISCDefinition>
          <nciodm:PreferredTerm>Bacillus</nciodm:PreferredTerm>
        </EnumeratedItem>
        <EnumeratedItem CodedValue="BACILLUS SUBTILIS" nciodm:ExtCodeID="C86167">
          <nciodm:CDISCDefinition>Any bacterial organism that can be assigned to the species Bacillus subtilis.</nciodm:CDISCDefinition>
          <nciodm:PreferredTerm>Bacillus subtilis</nciodm:PreferredTerm>
        </EnumeratedItem>
        <EnumeratedItem CodedValue="BACTERIA" nciodm:ExtCodeID="C14187">
          <nciodm:CDISCSynonym>BACTERIUM</nciodm:CDISCSynonym>
          <nciodm:CDISCSynonym>EUBACTERIA</nciodm:CDISCSynonym>
          <nciodm:CDISCDefinition>Any organism assigned to the kingdom Bacteria.</nciodm:CDISCDefinition>
          <nciodm:PreferredTerm>Bacteria</nciodm:PreferredTerm>
        </EnumeratedItem>
        <EnumeratedItem CodedValue="BACTEROIDES CACCAE" nciodm:ExtCodeID="C86168">
          <nciodm:CDISCSynonym>BACTEROIDES FRAGILIS GROUP 3452A</nciodm:CDISCSynonym>
          <nciodm:CDISCDefinition>Any bacterial organism that can be assigned to the species Bacteroides caccae.</nciodm:CDISCDefinition>
          <nciodm:PreferredTerm>Bacteroides caccae</nciodm:PreferredTerm>
        </EnumeratedItem>
        <EnumeratedItem CodedValue="BACTEROIDES CAPILLOSUS" nciodm:ExtCodeID="C86169">
          <nciodm:CDISCDefinition>Any bacterial organism that can be assigned to the species Bacteroides capillosus.</nciodm:CDISCDefinition>
          <nciodm:PreferredTerm>Bacteroides capillosus</nciodm:PreferredTerm>
        </EnumeratedItem>
        <EnumeratedItem CodedValue="BACTEROIDES CELLULOSOLVENS" nciodm:ExtCodeID="C86170">
          <nciodm:CDISCDefinition>Any bacterial organism that can be assigned to the species Bacteroides cellulosolvens.</nciodm:CDISCDefinition>
          <nciodm:PreferredTerm>Bacteroides cellulosolvens</nciodm:PreferredTerm>
        </EnumeratedItem>
        <EnumeratedItem CodedValue="BACTEROIDES EGGERTHII" nciodm:ExtCodeID="C86171">
          <nciodm:CDISCDefinition>Any bacterial organism that can be assigned to the species Bacteroides eggerthii.</nciodm:CDISCDefinition>
          <nciodm:PreferredTerm>Bacteroides eggerthii</nciodm:PreferredTerm>
        </EnumeratedItem>
        <EnumeratedItem CodedValue="BACTEROIDES FRAGILIS" nciodm:ExtCodeID="C86172">
          <nciodm:CDISCDefinition>Any bacterial organism that can be assigned to the species Bacteroides fragilis.</nciodm:CDISCDefinition>
          <nciodm:PreferredTerm>Bacteroides fragilis</nciodm:PreferredTerm>
        </EnumeratedItem>
        <EnumeratedItem CodedValue="BACTEROIDES FRAGILIS GROUP" nciodm:ExtCodeID="C86173">
          <nciodm:CDISCDefinition>A bacteria that belongs to the Fragilis group of the genus Bacteroides.</nciodm:CDISCDefinition>
          <nciodm:PreferredTerm>Bacteroides fragilis Group</nciodm:PreferredTerm>
        </EnumeratedItem>
        <EnumeratedItem CodedValue="BACTEROIDES NORDII" nciodm:ExtCodeID="C86174">
          <nciodm:CDISCDefinition>Any bacterial organism that can be assigned to the species Bacteroides nordii.</nciodm:CDISCDefinition>
          <nciodm:PreferredTerm>Bacteroides nordii</nciodm:PreferredTerm>
        </EnumeratedItem>
        <EnumeratedItem CodedValue="BACTEROIDES OVATUS" nciodm:ExtCodeID="C86175">
          <nciodm:CDISCDefinition>Any bacterial organism that can be assigned to the species Bacteroides ovatus.</nciodm:CDISCDefinition>
          <nciodm:PreferredTerm>Bacteroides ovatus</nciodm:PreferredTerm>
        </EnumeratedItem>
        <EnumeratedItem CodedValue="BACTEROIDES" nciodm:ExtCodeID="C76204">
          <nciodm:CDISCDefinition>Any bacteria that is not assigned to the species level but can be assigned to the Bacteroides genus level.</nciodm:CDISCDefinition>
          <nciodm:PreferredTerm>Bacteroides</nciodm:PreferredTerm>
        </EnumeratedItem>
        <EnumeratedItem CodedValue="BACTEROIDES SPLANCHNICUS" nciodm:ExtCodeID="C86176">
          <nciodm:CDISCDefinition>Any bacterial organism that can be assigned to the species Bacteroides splanchnicus.</nciodm:CDISCDefinition>
          <nciodm:PreferredTerm>Bacteroides splanchnicus</nciodm:PreferredTerm>
        </EnumeratedItem>
        <EnumeratedItem CodedValue="BACTEROIDES STERCORIS" nciodm:ExtCodeID="C86177">
          <nciodm:CDISCSynonym>BACTEROIDES FRAGILIS SUBSP. A</nciodm:CDISCSynonym>
          <nciodm:CDISCDefinition>Any bacterial organism that can be assigned to the species Bacteroides stercoris.</nciodm:CDISCDefinition>
          <nciodm:PreferredTerm>Bacteroides stercoris</nciodm:PreferredTerm>
        </EnumeratedItem>
        <EnumeratedItem CodedValue="BACTEROIDES TECTUS" nciodm:ExtCodeID="C86178">
          <nciodm:CDISCSynonym>BACTEROIDES TECTUM</nciodm:CDISCSynonym>
          <nciodm:CDISCDefinition>Any bacterial organism that can be assigned to the species Bacteroides tectus.</nciodm:CDISCDefinition>
          <nciodm:PreferredTerm>Bacteroides tectus</nciodm:PreferredTerm>
        </EnumeratedItem>
        <EnumeratedItem CodedValue="BACTEROIDES THETAIOTAMICRON" nciodm:ExtCodeID="C86179">
          <nciodm:CDISCDefinition>Any bacterial organism that can be assigned to the species Bacteroides thetaiotamicron.</nciodm:CDISCDefinition>
          <nciodm:PreferredTerm>Bacteroides thetaiotamicron</nciodm:PreferredTerm>
        </EnumeratedItem>
        <EnumeratedItem CodedValue="BACTEROIDES UNIFORMIS" nciodm:ExtCodeID="C86180">
          <nciodm:CDISCDefinition>Any bacterial organism that can be assigned to the species Bacteroides uniformis.</nciodm:CDISCDefinition>
          <nciodm:PreferredTerm>Bacteroides uniformis</nciodm:PreferredTerm>
        </EnumeratedItem>
        <EnumeratedItem CodedValue="BACTEROIDES UREOLYTICUS" nciodm:ExtCodeID="C86181">
          <nciodm:CDISCSynonym>BACTEROIDES CORRODENS</nciodm:CDISCSynonym>
          <nciodm:CDISCDefinition>Any bacterial organism that can be assigned to the species Bacteroides ureolyticus.</nciodm:CDISCDefinition>
          <nciodm:PreferredTerm>Bacteroides ureolyticus</nciodm:PreferredTerm>
        </EnumeratedItem>
        <EnumeratedItem CodedValue="BACTEROIDES VULGATUS" nciodm:ExtCodeID="C86182">
          <nciodm:CDISCDefinition>Any bacterial organism that can be assigned to the species Bacteroides vulgatus.</nciodm:CDISCDefinition>
          <nciodm:PreferredTerm>Bacteroides vulgatus</nciodm:PreferredTerm>
        </EnumeratedItem>
        <EnumeratedItem CodedValue="BARTONELLA ELIZABETHAE" nciodm:ExtCodeID="C86185">
          <nciodm:CDISCSynonym>ROCHALIMAEA ELIZABETHAE</nciodm:CDISCSynonym>
          <nciodm:CDISCDefinition>Any bacterial organism that can be assigned to the species Bartonella elizabethae.</nciodm:CDISCDefinition>
          <nciodm:PreferredTerm>Bartonella elizabethae</nciodm:PreferredTerm>
        </EnumeratedItem>
        <EnumeratedItem CodedValue="BARTONELLA HENSELAE" nciodm:ExtCodeID="C86186">
          <nciodm:CDISCSynonym>ROCHALIMAEA HENSELAE</nciodm:CDISCSynonym>
          <nciodm:CDISCDefinition>Any bacterial organism that can be assigned to the species Bartonella henselae.</nciodm:CDISCDefinition>
          <nciodm:PreferredTerm>Bartonella henselae</nciodm:PreferredTerm>
        </EnumeratedItem>
        <EnumeratedItem CodedValue="BARTONELLA QUINTANA" nciodm:ExtCodeID="C86187">
          <nciodm:CDISCSynonym>ROCHALIMAEA QUINTANA</nciodm:CDISCSynonym>
          <nciodm:CDISCDefinition>Any bacterial organism that can be assigned to the species Bartonella quintana.</nciodm:CDISCDefinition>
          <nciodm:PreferredTerm>Bartonella quintana</nciodm:PreferredTerm>
        </EnumeratedItem>
        <EnumeratedItem CodedValue="BARTONELLA" nciodm:ExtCodeID="C86184">
          <nciodm:CDISCDefinition>Any bacteria that is not assigned to the species level but can be assigned to the Bartonella genus level.</nciodm:CDISCDefinition>
          <nciodm:PreferredTerm>Bartonella</nciodm:PreferredTerm>
        </EnumeratedItem>
        <EnumeratedItem CodedValue="BERGEYELLA" nciodm:ExtCodeID="C86188">
          <nciodm:CDISCDefinition>Any bacteria that is not assigned to the species level but can be assigned to the Bergeyella genus level.</nciodm:CDISCDefinition>
          <nciodm:PreferredTerm>Bergeyella</nciodm:PreferredTerm>
        </EnumeratedItem>
        <EnumeratedItem CodedValue="BERGEYELLA ZOOHELCUM" nciodm:ExtCodeID="C86189">
          <nciodm:CDISCSynonym>WEEKSELLA ZOOHELCUM</nciodm:CDISCSynonym>
          <nciodm:CDISCDefinition>Any bacterial organism that can be assigned to the species Bergeyella zoohelcum.</nciodm:CDISCDefinition>
          <nciodm:PreferredTerm>Bergeyella zoohelcum</nciodm:PreferredTerm>
        </EnumeratedItem>
        <EnumeratedItem CodedValue="BETA STREPTOCOCCUS, GROUP C" nciodm:ExtCodeID="C86191">
          <nciodm:CDISCDefinition>A non-taxonomic grouping of beta-hemolytic species within the Streptococcus genus that are assigned to the C group.</nciodm:CDISCDefinition>
          <nciodm:PreferredTerm>Beta Streptococcus Group C</nciodm:PreferredTerm>
        </EnumeratedItem>
        <EnumeratedItem CodedValue="BETA STREPTOCOCCUS, GROUP F" nciodm:ExtCodeID="C86192">
          <nciodm:CDISCDefinition>A non-taxonomic grouping of beta-hemolytic species within the Streptococcus genus that are assigned to the F group.</nciodm:CDISCDefinition>
          <nciodm:PreferredTerm>Beta Streptococcus Group F</nciodm:PreferredTerm>
        </EnumeratedItem>
        <EnumeratedItem CodedValue="BETA STREPTOCOCCUS, GROUP G" nciodm:ExtCodeID="C86193">
          <nciodm:CDISCDefinition>A non-taxonomic grouping of beta-hemolytic species within the Streptococcus genus that are assigned to the G group.</nciodm:CDISCDefinition>
          <nciodm:PreferredTerm>Beta Streptococcus Group G</nciodm:PreferredTerm>
        </EnumeratedItem>
        <EnumeratedItem CodedValue="BIFIDOBACTERIUM ADOLESCENTIS" nciodm:ExtCodeID="C86195">
          <nciodm:CDISCDefinition>Any bacterial organism that can be assigned to the species Bifidobacterium adolescentis.</nciodm:CDISCDefinition>
          <nciodm:PreferredTerm>Bifidobacterium adolescentis</nciodm:PreferredTerm>
        </EnumeratedItem>
        <EnumeratedItem CodedValue="BIFIDOBACTERIUM ANGULATUM" nciodm:ExtCodeID="C86196">
          <nciodm:CDISCDefinition>Any bacterial organism that can be assigned to the species Bifidobacterium angulatum.</nciodm:CDISCDefinition>
          <nciodm:PreferredTerm>Bifidobacterium angulatum</nciodm:PreferredTerm>
        </EnumeratedItem>
        <EnumeratedItem CodedValue="BIFIDOBACTERIUM BIFIDUM" nciodm:ExtCodeID="C86197">
          <nciodm:CDISCDefinition>Any bacterial organism that can be assigned to the species Bifidobacterium bifidum.</nciodm:CDISCDefinition>
          <nciodm:PreferredTerm>Bifidobacterium bifidum</nciodm:PreferredTerm>
        </EnumeratedItem>
        <EnumeratedItem CodedValue="BIFIDOBACTERIUM DENTIUM" nciodm:ExtCodeID="C86198">
          <nciodm:CDISCSynonym>BIFIDOBACTERIUM APPENDICITIS</nciodm:CDISCSynonym>
          <nciodm:CDISCDefinition>Any bacterial organism that can be assigned to the species Bifidobacterium dentium.</nciodm:CDISCDefinition>
          <nciodm:PreferredTerm>Bifidobacterium dentium</nciodm:PreferredTerm>
        </EnumeratedItem>
        <EnumeratedItem CodedValue="BIFIDOBACTERIUM LONGUM" nciodm:ExtCodeID="C86199">
          <nciodm:CDISCDefinition>Any bacterial organism that can be assigned to the species Bifidobacterium longum.</nciodm:CDISCDefinition>
          <nciodm:PreferredTerm>Bifidobacterium longum</nciodm:PreferredTerm>
        </EnumeratedItem>
        <EnumeratedItem CodedValue="BIFIDOBACTERIUM" nciodm:ExtCodeID="C86194">
          <nciodm:CDISCDefinition>Any bacteria that is not assigned to the species level but can be assigned to the Bifidobacterium genus level.</nciodm:CDISCDefinition>
          <nciodm:PreferredTerm>Bifidobacterium</nciodm:PreferredTerm>
        </EnumeratedItem>
        <EnumeratedItem CodedValue="BILOPHILA" nciodm:ExtCodeID="C86200">
          <nciodm:CDISCDefinition>Any bacteria that is not assigned to the species level but can be assigned to the Bilophila genus level.</nciodm:CDISCDefinition>
          <nciodm:PreferredTerm>Bilophila</nciodm:PreferredTerm>
        </EnumeratedItem>
        <EnumeratedItem CodedValue="BILOPHILA WADSWORTHIA" nciodm:ExtCodeID="C86201">
          <nciodm:CDISCDefinition>Any bacterial organism that can be assigned to the species Bilophila wadsworthia.</nciodm:CDISCDefinition>
          <nciodm:PreferredTerm>Bilophila wadsworthia</nciodm:PreferredTerm>
        </EnumeratedItem>
        <EnumeratedItem CodedValue="BORDETELLA AVIUM" nciodm:ExtCodeID="C86203">
          <nciodm:CDISCDefinition>Any bacterial organism that can be assigned to the species Bordetella avium.</nciodm:CDISCDefinition>
          <nciodm:PreferredTerm>Bordetella avium</nciodm:PreferredTerm>
        </EnumeratedItem>
        <EnumeratedItem CodedValue="BORDETELLA BRONCHISEPTICA" nciodm:ExtCodeID="C86204">
          <nciodm:CDISCSynonym>BORDETELLA BRONCHICANIS</nciodm:CDISCSynonym>
          <nciodm:CDISCDefinition>Any bacterial organism that can be assigned to the species Bordetella bronchiseptica.</nciodm:CDISCDefinition>
          <nciodm:PreferredTerm>Bordetella bronchiseptica</nciodm:PreferredTerm>
        </EnumeratedItem>
        <EnumeratedItem CodedValue="BORDETELLA PARAPERTUSSIS" nciodm:ExtCodeID="C86205">
          <nciodm:CDISCDefinition>Any bacterial organism that can be assigned to the species Bordetella parapertussis.</nciodm:CDISCDefinition>
          <nciodm:PreferredTerm>Bordetella parapertussis</nciodm:PreferredTerm>
        </EnumeratedItem>
        <EnumeratedItem CodedValue="BORDETELLA PERTUSSIS" nciodm:ExtCodeID="C76205">
          <nciodm:CDISCDefinition>Any bacterial organism that can be assigned to the species Bordetella pertussis.</nciodm:CDISCDefinition>
          <nciodm:PreferredTerm>Bordetella pertussis</nciodm:PreferredTerm>
        </EnumeratedItem>
        <EnumeratedItem CodedValue="BORDETELLA" nciodm:ExtCodeID="C86202">
          <nciodm:CDISCDefinition>Any bacteria that is not assigned to the species level but can be assigned to the Bordetella genus level.</nciodm:CDISCDefinition>
          <nciodm:PreferredTerm>Bordetella</nciodm:PreferredTerm>
        </EnumeratedItem>
        <EnumeratedItem CodedValue="BORRELIA BURGDORFERI" nciodm:ExtCodeID="C76208">
          <nciodm:CDISCDefinition>Any bacterial organism that can be assigned to the species Borrelia burgdorferi.</nciodm:CDISCDefinition>
          <nciodm:PreferredTerm>Borrelia burgdorferi</nciodm:PreferredTerm>
        </EnumeratedItem>
        <EnumeratedItem CodedValue="BORRELIA" nciodm:ExtCodeID="C86206">
          <nciodm:CDISCDefinition>Any bacteria that is not assigned to the species level but can be assigned to the Borrelia genus level.</nciodm:CDISCDefinition>
          <nciodm:PreferredTerm>Borrelia</nciodm:PreferredTerm>
        </EnumeratedItem>
        <EnumeratedItem CodedValue="BREVIBACILLUS LATEROSPORUS" nciodm:ExtCodeID="C86208">
          <nciodm:CDISCDefinition>Any bacterial organism that can be assigned to the species Brevibacillus laterosporus.</nciodm:CDISCDefinition>
          <nciodm:PreferredTerm>Brevibacillus laterosporus</nciodm:PreferredTerm>
        </EnumeratedItem>
        <EnumeratedItem CodedValue="BREVIBACILLUS" nciodm:ExtCodeID="C86207">
          <nciodm:CDISCDefinition>Any bacteria that is not assigned to the species level but can be assigned to the Brevibacillus genus level.</nciodm:CDISCDefinition>
          <nciodm:PreferredTerm>Brevibacillus</nciodm:PreferredTerm>
        </EnumeratedItem>
        <EnumeratedItem CodedValue="BREVIBACTERIUM CASEI" nciodm:ExtCodeID="C86210">
          <nciodm:CDISCDefinition>Any bacterial organism that can be assigned to the species Brevibacterium casei.</nciodm:CDISCDefinition>
          <nciodm:PreferredTerm>Brevibacterium casei</nciodm:PreferredTerm>
        </EnumeratedItem>
        <EnumeratedItem CodedValue="BREVIBACTERIUM EPIDERMIDIS" nciodm:ExtCodeID="C86211">
          <nciodm:CDISCDefinition>Any bacterial organism that can be assigned to the species Brevibacterium epidermidis.</nciodm:CDISCDefinition>
          <nciodm:PreferredTerm>Brevibacterium epidermidis</nciodm:PreferredTerm>
        </EnumeratedItem>
        <EnumeratedItem CodedValue="BREVIBACTERIUM" nciodm:ExtCodeID="C86209">
          <nciodm:CDISCDefinition>Any bacteria that is not assigned to the species level but can be assigned to the Brevibacterium genus level.</nciodm:CDISCDefinition>
          <nciodm:PreferredTerm>Brevibacterium</nciodm:PreferredTerm>
        </EnumeratedItem>
        <EnumeratedItem CodedValue="BREVUNDIMONAS DIMINUTA" nciodm:ExtCodeID="C86213">
          <nciodm:CDISCSynonym>PSEUDOMONAS DIMINUTA</nciodm:CDISCSynonym>
          <nciodm:CDISCDefinition>Any bacterial organism that can be assigned to the species Brevundimonas diminuta.</nciodm:CDISCDefinition>
          <nciodm:PreferredTerm>Brevundimonas diminuta</nciodm:PreferredTerm>
        </EnumeratedItem>
        <EnumeratedItem CodedValue="BREVUNDIMONAS" nciodm:ExtCodeID="C86212">
          <nciodm:CDISCDefinition>Any bacteria that is not assigned to the species level but can be assigned to the Brevundimonas genus level.</nciodm:CDISCDefinition>
          <nciodm:PreferredTerm>Brevundimonas</nciodm:PreferredTerm>
        </EnumeratedItem>
        <EnumeratedItem CodedValue="BREVUNDIMONAS VESICULARIS" nciodm:ExtCodeID="C86214">
          <nciodm:CDISCSynonym>PSEUDOMONAS VESICULARIS</nciodm:CDISCSynonym>
          <nciodm:CDISCDefinition>Any bacterial organism that can be assigned to the species Brevundimonas vesicularis.</nciodm:CDISCDefinition>
          <nciodm:PreferredTerm>Brevundimonas vesicularis</nciodm:PreferredTerm>
        </EnumeratedItem>
        <EnumeratedItem CodedValue="BRUCELLA ABORTUS" nciodm:ExtCodeID="C86216">
          <nciodm:CDISCDefinition>Any bacterial organism that can be assigned to the species Brucella abortus.</nciodm:CDISCDefinition>
          <nciodm:PreferredTerm>Brucella abortus</nciodm:PreferredTerm>
        </EnumeratedItem>
        <EnumeratedItem CodedValue="BRUCELLA CANIS" nciodm:ExtCodeID="C86217">
          <nciodm:CDISCDefinition>Any bacterial organism that can be assigned to the species Brucella canis.</nciodm:CDISCDefinition>
          <nciodm:PreferredTerm>Brucella canis</nciodm:PreferredTerm>
        </EnumeratedItem>
        <EnumeratedItem CodedValue="BRUCELLA MELITENSIS" nciodm:ExtCodeID="C86218">
          <nciodm:CDISCDefinition>Any bacterial organism that can be assigned to the species Brucella melitensis.</nciodm:CDISCDefinition>
          <nciodm:PreferredTerm>Brucella melitensis</nciodm:PreferredTerm>
        </EnumeratedItem>
        <EnumeratedItem CodedValue="BRUCELLA" nciodm:ExtCodeID="C86215">
          <nciodm:CDISCDefinition>Any bacteria that is not assigned to the species level but can be assigned to the Brucella genus level.</nciodm:CDISCDefinition>
          <nciodm:PreferredTerm>Brucella</nciodm:PreferredTerm>
        </EnumeratedItem>
        <EnumeratedItem CodedValue="BRUCELLA SUIS" nciodm:ExtCodeID="C86219">
          <nciodm:CDISCDefinition>Any bacterial organism that can be assigned to the species Brucella suis.</nciodm:CDISCDefinition>
          <nciodm:PreferredTerm>Brucella suis</nciodm:PreferredTerm>
        </EnumeratedItem>
        <EnumeratedItem CodedValue="BUDVICIA AQUATICA" nciodm:ExtCodeID="C86221">
          <nciodm:CDISCDefinition>Any bacterial organism that can be assigned to the species Budvicia aquatica.</nciodm:CDISCDefinition>
          <nciodm:PreferredTerm>Budvicia aquatica</nciodm:PreferredTerm>
        </EnumeratedItem>
        <EnumeratedItem CodedValue="BUDVICIA" nciodm:ExtCodeID="C86220">
          <nciodm:CDISCDefinition>Any bacteria that is not assigned to the species level but can be assigned to the Budvicia genus level.</nciodm:CDISCDefinition>
          <nciodm:PreferredTerm>Budvicia</nciodm:PreferredTerm>
        </EnumeratedItem>
        <EnumeratedItem CodedValue="BURKHOLDERIA CENOCEPACIA" nciodm:ExtCodeID="C86223">
          <nciodm:CDISCDefinition>Any bacterial organism that can be assigned to the species Burkholderia cenocepacia.</nciodm:CDISCDefinition>
          <nciodm:PreferredTerm>Burkholderia cenocepacia</nciodm:PreferredTerm>
        </EnumeratedItem>
        <EnumeratedItem CodedValue="BURKHOLDERIA CEPACIA" nciodm:ExtCodeID="C76376">
          <nciodm:CDISCSynonym>PSEUDOMONAS CEPACIA</nciodm:CDISCSynonym>
          <nciodm:CDISCSynonym>CDC GROUP EO-1</nciodm:CDISCSynonym>
          <nciodm:CDISCDefinition>Any bacterial organism that can be assigned to the species Burkholderia cepacia.</nciodm:CDISCDefinition>
          <nciodm:PreferredTerm>Burkholderia cepacia</nciodm:PreferredTerm>
        </EnumeratedItem>
        <EnumeratedItem CodedValue="BURKHOLDERIA CEPACIA COMPLEX" nciodm:ExtCodeID="C86224">
          <nciodm:CDISCDefinition>A non-taxonomic grouping of bacteria assigned to and including at least nine related species from the Burkholderia genus.</nciodm:CDISCDefinition>
          <nciodm:PreferredTerm>Burkholderia cepacia Complex</nciodm:PreferredTerm>
        </EnumeratedItem>
        <EnumeratedItem CodedValue="BURKHOLDERIA GLADIOLI" nciodm:ExtCodeID="C86225">
          <nciodm:CDISCSynonym>PSEUDOMONAS GLADIOLI</nciodm:CDISCSynonym>
          <nciodm:CDISCDefinition>Any bacterial organism that can be assigned to the species Burkholderia gladioli.</nciodm:CDISCDefinition>
          <nciodm:PreferredTerm>Burkholderia gladioli</nciodm:PreferredTerm>
        </EnumeratedItem>
        <EnumeratedItem CodedValue="BURKHOLDERIA MALLEI" nciodm:ExtCodeID="C86226">
          <nciodm:CDISCSynonym>ACTINOBACILLUS MALLEI</nciodm:CDISCSynonym>
          <nciodm:CDISCDefinition>Any bacterial organism that can be assigned to the species Burkholderia mallei.</nciodm:CDISCDefinition>
          <nciodm:PreferredTerm>Burkholderia mallei</nciodm:PreferredTerm>
        </EnumeratedItem>
        <EnumeratedItem CodedValue="BURKHOLDERIA PSEUDOMALLEI" nciodm:ExtCodeID="C86227">
          <nciodm:CDISCSynonym>PSEUDOMONAS PSEUDOMALLEI</nciodm:CDISCSynonym>
          <nciodm:CDISCSynonym>BURKHOLDERIA PSEUDOMALLE</nciodm:CDISCSynonym>
          <nciodm:CDISCDefinition>Any bacterial organism that can be assigned to the species Burkholderia pseudomallei.</nciodm:CDISCDefinition>
          <nciodm:PreferredTerm>Burkholderia pseudomallei</nciodm:PreferredTerm>
        </EnumeratedItem>
        <EnumeratedItem CodedValue="BURKHOLDERIA" nciodm:ExtCodeID="C86222">
          <nciodm:CDISCDefinition>Any bacteria that is not assigned to the species level but can be assigned to the Burkholderia genus level.</nciodm:CDISCDefinition>
          <nciodm:PreferredTerm>Burkholderia</nciodm:PreferredTerm>
        </EnumeratedItem>
        <EnumeratedItem CodedValue="BUTTIAUXELLA AGRESTIS" nciodm:ExtCodeID="C86229">
          <nciodm:CDISCDefinition>Any bacterial organism that can be assigned to the species Buttiauxella agrestis.</nciodm:CDISCDefinition>
          <nciodm:PreferredTerm>Buttiauxella agrestis</nciodm:PreferredTerm>
        </EnumeratedItem>
        <EnumeratedItem CodedValue="BUTTIAUXELLA" nciodm:ExtCodeID="C86228">
          <nciodm:CDISCDefinition>Any bacteria that is not assigned to the species level but can be assigned to the Buttiauxella genus level.</nciodm:CDISCDefinition>
          <nciodm:PreferredTerm>Buttiauxella</nciodm:PreferredTerm>
        </EnumeratedItem>
        <EnumeratedItem CodedValue="CAMPYLOBACTER COLI" nciodm:ExtCodeID="C86230">
          <nciodm:CDISCDefinition>Any bacterial organism that can be assigned to the species Campylobacter coli.</nciodm:CDISCDefinition>
          <nciodm:PreferredTerm>Campylobacter coli</nciodm:PreferredTerm>
        </EnumeratedItem>
        <EnumeratedItem CodedValue="CAMPYLOBACTER CONCISUS" nciodm:ExtCodeID="C86231">
          <nciodm:CDISCSynonym>CDC GROUP EF-22</nciodm:CDISCSynonym>
          <nciodm:CDISCDefinition>Any bacterial organism that can be assigned to the species Campylobacter concisus.</nciodm:CDISCDefinition>
          <nciodm:PreferredTerm>Campylobacter concisus</nciodm:PreferredTerm>
        </EnumeratedItem>
        <EnumeratedItem CodedValue="CAMPYLOBACTER CURVUS" nciodm:ExtCodeID="C86232">
          <nciodm:CDISCSynonym>WOLINELLA CURVA</nciodm:CDISCSynonym>
          <nciodm:CDISCDefinition>Any bacterial organism that can be assigned to the species Campylobacter curvus.</nciodm:CDISCDefinition>
          <nciodm:PreferredTerm>Campylobacter curvus</nciodm:PreferredTerm>
        </EnumeratedItem>
        <EnumeratedItem CodedValue="CAMPYLOBACTER FETUS" nciodm:ExtCodeID="C86233">
          <nciodm:CDISCSynonym>VIBRIO FETUS</nciodm:CDISCSynonym>
          <nciodm:CDISCDefinition>Any bacterial organism that can be assigned to the species Campylobacter fetus.</nciodm:CDISCDefinition>
          <nciodm:PreferredTerm>Campylobacter fetus</nciodm:PreferredTerm>
        </EnumeratedItem>
        <EnumeratedItem CodedValue="CAMPYLOBACTER GRACILIS" nciodm:ExtCodeID="C86234">
          <nciodm:CDISCSynonym>BACTEROIDES GRACILIS</nciodm:CDISCSynonym>
          <nciodm:CDISCDefinition>Any bacterial organism that can be assigned to the species Campylobacter gracilis.</nciodm:CDISCDefinition>
          <nciodm:PreferredTerm>Campylobacter gracilis</nciodm:PreferredTerm>
        </EnumeratedItem>
        <EnumeratedItem CodedValue="CAMPYLOBACTER JEJUNI" nciodm:ExtCodeID="C86235">
          <nciodm:CDISCDefinition>Any bacterial organism that can be assigned to the species Campylobacter jejuni.</nciodm:CDISCDefinition>
          <nciodm:PreferredTerm>Campylobacter jejuni</nciodm:PreferredTerm>
        </EnumeratedItem>
        <EnumeratedItem CodedValue="CAMPYLOBACTER LARI" nciodm:ExtCodeID="C86236">
          <nciodm:CDISCSynonym>CAMPYLOBACTER LARIDIS</nciodm:CDISCSynonym>
          <nciodm:CDISCDefinition>Any bacterial organism that can be assigned to the species Campylobacter lari.</nciodm:CDISCDefinition>
          <nciodm:PreferredTerm>Campylobacter lari</nciodm:PreferredTerm>
        </EnumeratedItem>
        <EnumeratedItem CodedValue="CAMPYLOBACTER RECTUS" nciodm:ExtCodeID="C86237">
          <nciodm:CDISCSynonym>WOLINELLA RECTA</nciodm:CDISCSynonym>
          <nciodm:CDISCDefinition>Any bacterial organism that can be assigned to the species Campylobacter rectus.</nciodm:CDISCDefinition>
          <nciodm:PreferredTerm>Campylobacter rectus</nciodm:PreferredTerm>
        </EnumeratedItem>
        <EnumeratedItem CodedValue="CAMPYLOBACTER" nciodm:ExtCodeID="C76211">
          <nciodm:CDISCDefinition>Any bacteria that is not assigned to the species level but can be assigned to the Campylobacter genus level.</nciodm:CDISCDefinition>
          <nciodm:PreferredTerm>Campylobacter</nciodm:PreferredTerm>
        </EnumeratedItem>
        <EnumeratedItem CodedValue="CAMPYLOBACTER UPSALIENSIS" nciodm:ExtCodeID="C86238">
          <nciodm:CDISCDefinition>Any bacterial organism that can be assigned to the species Campylobacter upsaliensis.</nciodm:CDISCDefinition>
          <nciodm:PreferredTerm>Campylobacter upsaliensis</nciodm:PreferredTerm>
        </EnumeratedItem>
        <EnumeratedItem CodedValue="CAPNOCYTOPHAGA CANIMORSUS" nciodm:ExtCodeID="C86239">
          <nciodm:CDISCSynonym>CDC GROUP DF-2</nciodm:CDISCSynonym>
          <nciodm:CDISCDefinition>Any bacterial organism that can be assigned to the species Capnocytophaga canimorsus.</nciodm:CDISCDefinition>
          <nciodm:PreferredTerm>Capnocytophaga canimorsus</nciodm:PreferredTerm>
        </EnumeratedItem>
        <EnumeratedItem CodedValue="CAPNOCYTOPHAGA GINGIVALIS" nciodm:ExtCodeID="C86240">
          <nciodm:CDISCDefinition>Any bacterial organism that can be assigned to the species Capnocytophaga gingivalis.</nciodm:CDISCDefinition>
          <nciodm:PreferredTerm>Capnocytophaga gingivalis</nciodm:PreferredTerm>
        </EnumeratedItem>
        <EnumeratedItem CodedValue="CAPNOCYTOPHAGA OCHRACEA" nciodm:ExtCodeID="C86241">
          <nciodm:CDISCDefinition>Any bacterial organism that can be assigned to the species Capnocytophaga ochracea.</nciodm:CDISCDefinition>
          <nciodm:PreferredTerm>Capnocytophaga ochracea</nciodm:PreferredTerm>
        </EnumeratedItem>
        <EnumeratedItem CodedValue="CAPNOCYTOPHAGA" nciodm:ExtCodeID="C76269">
          <nciodm:CDISCDefinition>Any bacteria that is not assigned to the species level but can be assigned to the Capnocytophaga genus level.</nciodm:CDISCDefinition>
          <nciodm:PreferredTerm>Capnocytophaga</nciodm:PreferredTerm>
        </EnumeratedItem>
        <EnumeratedItem CodedValue="CAPNOCYTOPHAGA SPUTIGENA" nciodm:ExtCodeID="C86242">
          <nciodm:CDISCDefinition>Any bacterial organism that can be assigned to the species Capnocytophaga sputigena.</nciodm:CDISCDefinition>
          <nciodm:PreferredTerm>Capnocytophaga sputigena</nciodm:PreferredTerm>
        </EnumeratedItem>
        <EnumeratedItem CodedValue="CARDIOBACTERIUM HOMINIS" nciodm:ExtCodeID="C86244">
          <nciodm:CDISCSynonym>CDC GROUP IID</nciodm:CDISCSynonym>
          <nciodm:CDISCDefinition>Any bacterial organism that can be assigned to the species Cardiobacterium hominis.</nciodm:CDISCDefinition>
          <nciodm:PreferredTerm>Cardiobacterium hominis</nciodm:PreferredTerm>
        </EnumeratedItem>
        <EnumeratedItem CodedValue="CARDIOBACTERIUM" nciodm:ExtCodeID="C86243">
          <nciodm:CDISCDefinition>Any bacteria that is not assigned to the species level but can be assigned to the Cardiobacterium genus level.</nciodm:CDISCDefinition>
          <nciodm:PreferredTerm>Cardiobacterium</nciodm:PreferredTerm>
        </EnumeratedItem>
        <EnumeratedItem CodedValue="CEDECEA DAVISAE" nciodm:ExtCodeID="C86246">
          <nciodm:CDISCSynonym>CDC ENTERIC GROUP 15</nciodm:CDISCSynonym>
          <nciodm:CDISCDefinition>Any bacterial organism that can be assigned to the species Cedecea davisae.</nciodm:CDISCDefinition>
          <nciodm:PreferredTerm>Cedecea davisae</nciodm:PreferredTerm>
        </EnumeratedItem>
        <EnumeratedItem CodedValue="CEDECEA LAPAGEI" nciodm:ExtCodeID="C86247">
          <nciodm:CDISCDefinition>Any bacterial organism that can be assigned to the species Cedecea lapagei.</nciodm:CDISCDefinition>
          <nciodm:PreferredTerm>Cedecea lapagei</nciodm:PreferredTerm>
        </EnumeratedItem>
        <EnumeratedItem CodedValue="CEDECEA NETERI" nciodm:ExtCodeID="C86248">
          <nciodm:CDISCSynonym>CEDECEA SPECIES 4</nciodm:CDISCSynonym>
          <nciodm:CDISCDefinition>Any bacterial organism that can be assigned to the species Cedecea neteri.</nciodm:CDISCDefinition>
          <nciodm:PreferredTerm>Cedecea neteri</nciodm:PreferredTerm>
        </EnumeratedItem>
        <EnumeratedItem CodedValue="CEDECEA" nciodm:ExtCodeID="C86245">
          <nciodm:CDISCDefinition>Any bacteria that is not assigned to the species level but can be assigned to the Cedecea genus level.</nciodm:CDISCDefinition>
          <nciodm:PreferredTerm>Cedecea</nciodm:PreferredTerm>
        </EnumeratedItem>
        <EnumeratedItem CodedValue="CELLULOMONAS HOMINIS" nciodm:ExtCodeID="C86250">
          <nciodm:CDISCDefinition>Any bacterial organism that can be assigned to the species Cellulomonas hominis.</nciodm:CDISCDefinition>
          <nciodm:PreferredTerm>Cellulomonas hominis</nciodm:PreferredTerm>
        </EnumeratedItem>
        <EnumeratedItem CodedValue="CELLULOMONAS" nciodm:ExtCodeID="C86249">
          <nciodm:CDISCDefinition>Any bacteria that is not assigned to the species level but can be assigned to the Cellulomonas genus level.</nciodm:CDISCDefinition>
          <nciodm:PreferredTerm>Cellulomonas</nciodm:PreferredTerm>
        </EnumeratedItem>
        <EnumeratedItem CodedValue="CELLULOSIMICROBIUM CELLULANS" nciodm:ExtCodeID="C86252">
          <nciodm:CDISCSynonym>OERSKOVIA XANTHINEOLYTICA</nciodm:CDISCSynonym>
          <nciodm:CDISCSynonym>ARTHROBACTER LUTEUS</nciodm:CDISCSynonym>
          <nciodm:CDISCSynonym>CELLULOMONAS CELLULANS</nciodm:CDISCSynonym>
          <nciodm:CDISCSynonym>NOCARDIA CELLULANS</nciodm:CDISCSynonym>
          <nciodm:CDISCDefinition>Any bacterial organism that can be assigned to the species Cellulosimicrobium cellulans.</nciodm:CDISCDefinition>
          <nciodm:PreferredTerm>Cellulosimicrobium cellulans</nciodm:PreferredTerm>
        </EnumeratedItem>
        <EnumeratedItem CodedValue="CELLULOSIMICROBIUM" nciodm:ExtCodeID="C86251">
          <nciodm:CDISCDefinition>Any bacteria that is not assigned to the species level but can be assigned to the Cellulosimicrobium genus level.</nciodm:CDISCDefinition>
          <nciodm:PreferredTerm>Cellulosimicrobium</nciodm:PreferredTerm>
        </EnumeratedItem>
        <EnumeratedItem CodedValue="CHLAMYDIA" nciodm:ExtCodeID="C76271">
          <nciodm:CDISCDefinition>Any bacteria that is not assigned to the species level but can be assigned to the Chlamydia genus level.</nciodm:CDISCDefinition>
          <nciodm:PreferredTerm>Chlamydia</nciodm:PreferredTerm>
        </EnumeratedItem>
        <EnumeratedItem CodedValue="CHLAMYDIA TRACHOMATIS" nciodm:ExtCodeID="C86253">
          <nciodm:CDISCDefinition>Any bacterial organism that can be assigned to the species Chlamydia trachomatis.</nciodm:CDISCDefinition>
          <nciodm:PreferredTerm>Chlamydia trachomatis</nciodm:PreferredTerm>
        </EnumeratedItem>
        <EnumeratedItem CodedValue="CHLAMYDOPHILA PNEUMONIAE" nciodm:ExtCodeID="C76272">
          <nciodm:CDISCSynonym>CHLAMYDIA PNEUMONIAE</nciodm:CDISCSynonym>
          <nciodm:CDISCDefinition>Any bacterial organism that can be assigned to the species Chlamydophila pneumoniae.</nciodm:CDISCDefinition>
          <nciodm:PreferredTerm>Chlamydophila pneumoniae</nciodm:PreferredTerm>
        </EnumeratedItem>
        <EnumeratedItem CodedValue="CHLAMYDOPHILA PSITTACI" nciodm:ExtCodeID="C86255">
          <nciodm:CDISCSynonym>CHLAMYDIA PSITTACI</nciodm:CDISCSynonym>
          <nciodm:CDISCDefinition>Any bacterial organism that can be assigned to the species Chlamydophila psittaci.</nciodm:CDISCDefinition>
          <nciodm:PreferredTerm>Chlamydophila psittaci</nciodm:PreferredTerm>
        </EnumeratedItem>
        <EnumeratedItem CodedValue="CHLAMYDOPHILA" nciodm:ExtCodeID="C86254">
          <nciodm:CDISCDefinition>Any bacteria that is not assigned to the species level but can be assigned to the Chlamydophila genus level.</nciodm:CDISCDefinition>
          <nciodm:PreferredTerm>Chlamydophila</nciodm:PreferredTerm>
        </EnumeratedItem>
        <EnumeratedItem CodedValue="CHROMOBACTERIUM" nciodm:ExtCodeID="C86256">
          <nciodm:CDISCDefinition>Any bacteria that is not assigned to the species level but can be assigned to the Chromobacterium genus level.</nciodm:CDISCDefinition>
          <nciodm:PreferredTerm>Chromobacterium</nciodm:PreferredTerm>
        </EnumeratedItem>
        <EnumeratedItem CodedValue="CHROMOBACTERIUM VIOLACEUM" nciodm:ExtCodeID="C86257">
          <nciodm:CDISCDefinition>Any bacterial organism that can be assigned to the species Chromobacterium violaceum.</nciodm:CDISCDefinition>
          <nciodm:PreferredTerm>Chromobacterium violaceum</nciodm:PreferredTerm>
        </EnumeratedItem>
        <EnumeratedItem CodedValue="CHRYSEOBACTERIUM GLEUM" nciodm:ExtCodeID="C86259">
          <nciodm:CDISCSynonym>FLAVOBACTERIUM GLEUM</nciodm:CDISCSynonym>
          <nciodm:CDISCDefinition>Any bacterial organism that can be assigned to the species Chryseobacterium gleum.</nciodm:CDISCDefinition>
          <nciodm:PreferredTerm>Chryseobacterium gleum</nciodm:PreferredTerm>
        </EnumeratedItem>
        <EnumeratedItem CodedValue="CHRYSEOBACTERIUM INDOLOGENES" nciodm:ExtCodeID="C86260">
          <nciodm:CDISCSynonym>FLAVOBACTERIUM INDOLOGENES</nciodm:CDISCSynonym>
          <nciodm:CDISCDefinition>Any bacterial organism that can be assigned to the species Chryseobacterium indologenes.</nciodm:CDISCDefinition>
          <nciodm:PreferredTerm>Chryseobacterium indologenes</nciodm:PreferredTerm>
        </EnumeratedItem>
        <EnumeratedItem CodedValue="CHRYSEOBACTERIUM" nciodm:ExtCodeID="C86258">
          <nciodm:CDISCDefinition>Any bacteria that is not assigned to the species level but can be assigned to the Chryseobacterium genus level.</nciodm:CDISCDefinition>
          <nciodm:PreferredTerm>Chryseobacterium</nciodm:PreferredTerm>
        </EnumeratedItem>
        <EnumeratedItem CodedValue="CHRYSEOMONAS" nciodm:ExtCodeID="C86261">
          <nciodm:CDISCDefinition>Any bacteria that is not assigned to the species level but can be assigned to the Chryseomonas genus level.</nciodm:CDISCDefinition>
          <nciodm:PreferredTerm>Chryseomonas</nciodm:PreferredTerm>
        </EnumeratedItem>
        <EnumeratedItem CodedValue="CITROBACTER AMALONATICUS" nciodm:ExtCodeID="C86262">
          <nciodm:CDISCSynonym>LEVINEA AMALONATICA</nciodm:CDISCSynonym>
          <nciodm:CDISCDefinition>Any bacterial organism that can be assigned to the species Citrobacter amalonaticus.</nciodm:CDISCDefinition>
          <nciodm:PreferredTerm>Citrobacter amalonaticus</nciodm:PreferredTerm>
        </EnumeratedItem>
        <EnumeratedItem CodedValue="CITROBACTER BRAAKII" nciodm:ExtCodeID="C86263">
          <nciodm:CDISCDefinition>Any bacterial organism that can be assigned to the species Citrobacter braakii.</nciodm:CDISCDefinition>
          <nciodm:PreferredTerm>Citrobacter braakii</nciodm:PreferredTerm>
        </EnumeratedItem>
        <EnumeratedItem CodedValue="CITROBACTER FARMERI" nciodm:ExtCodeID="C86264">
          <nciodm:CDISCSynonym>CITROBACTER AMALONATICUS BIOGROUP 1</nciodm:CDISCSynonym>
          <nciodm:CDISCDefinition>Any bacterial organism that can be assigned to the species Citrobacter farmeri.</nciodm:CDISCDefinition>
          <nciodm:PreferredTerm>Citrobacter farmeri</nciodm:PreferredTerm>
        </EnumeratedItem>
        <EnumeratedItem CodedValue="CITROBACTER FREUNDII" nciodm:ExtCodeID="C86265">
          <nciodm:CDISCSynonym>COLOBACTRUM FREUNDII</nciodm:CDISCSynonym>
          <nciodm:CDISCDefinition>Any bacterial organism that can be assigned to the species Citrobacter freundii.</nciodm:CDISCDefinition>
          <nciodm:PreferredTerm>Citrobacter freundii</nciodm:PreferredTerm>
        </EnumeratedItem>
        <EnumeratedItem CodedValue="CITROBACTER FREUNDII COMPLEX" nciodm:ExtCodeID="C86266">
          <nciodm:CDISCDefinition>A non-taxonomic grouping of bacteria assigned to and including eight related species from the Citrobacter genus.</nciodm:CDISCDefinition>
          <nciodm:PreferredTerm>Citrobacter freundii Complex</nciodm:PreferredTerm>
        </EnumeratedItem>
        <EnumeratedItem CodedValue="CITROBACTER KOSERI" nciodm:ExtCodeID="C86267">
          <nciodm:CDISCSynonym>CITROBACTER DIVERSUS</nciodm:CDISCSynonym>
          <nciodm:CDISCDefinition>Any bacterial organism that can be assigned to the species Citrobacter koseri.</nciodm:CDISCDefinition>
          <nciodm:PreferredTerm>Citrobacter koseri</nciodm:PreferredTerm>
        </EnumeratedItem>
        <EnumeratedItem CodedValue="CITROBACTER" nciodm:ExtCodeID="C76273">
          <nciodm:CDISCDefinition>Any bacteria that is not assigned to the species level but can be assigned to the Citrobacter genus level.</nciodm:CDISCDefinition>
          <nciodm:PreferredTerm>Citrobacter</nciodm:PreferredTerm>
        </EnumeratedItem>
        <EnumeratedItem CodedValue="CITROBACTER YOUNGAE" nciodm:ExtCodeID="C86268">
          <nciodm:CDISCDefinition>Any bacterial organism that can be assigned to the species Citrobacter youngae.</nciodm:CDISCDefinition>
          <nciodm:PreferredTerm>Citrobacter youngae</nciodm:PreferredTerm>
        </EnumeratedItem>
        <EnumeratedItem CodedValue="CLOSTRIDIUM ACETOBUTYLICUM" nciodm:ExtCodeID="C86269">
          <nciodm:CDISCDefinition>Any bacterial organism that can be assigned to the species Clostridium acetobutylicum.</nciodm:CDISCDefinition>
          <nciodm:PreferredTerm>Clostridium acetobutylicum</nciodm:PreferredTerm>
        </EnumeratedItem>
        <EnumeratedItem CodedValue="CLOSTRIDIUM BARATII" nciodm:ExtCodeID="C86270">
          <nciodm:CDISCSynonym>CLOSTRIDIUM BARATI</nciodm:CDISCSynonym>
          <nciodm:CDISCDefinition>Any bacterial organism that can be assigned to the species Clostridium baratii.</nciodm:CDISCDefinition>
          <nciodm:PreferredTerm>Clostridium baratii</nciodm:PreferredTerm>
        </EnumeratedItem>
        <EnumeratedItem CodedValue="CLOSTRIDIUM BEIJERINCKII" nciodm:ExtCodeID="C86271">
          <nciodm:CDISCDefinition>Any bacterial organism that can be assigned to the species Clostridium beijerinckii.</nciodm:CDISCDefinition>
          <nciodm:PreferredTerm>Clostridium beijerinckii</nciodm:PreferredTerm>
        </EnumeratedItem>
        <EnumeratedItem CodedValue="CLOSTRIDIUM BIFERMENTANS" nciodm:ExtCodeID="C86272">
          <nciodm:CDISCDefinition>Any bacterial organism that can be assigned to the species Clostridium bifermentans.</nciodm:CDISCDefinition>
          <nciodm:PreferredTerm>Clostridium bifermentans</nciodm:PreferredTerm>
        </EnumeratedItem>
        <EnumeratedItem CodedValue="CLOSTRIDIUM BUTYRICUM" nciodm:ExtCodeID="C86273">
          <nciodm:CDISCSynonym>CLOSTRIDIUM PSEUDOTETANICUM</nciodm:CDISCSynonym>
          <nciodm:CDISCDefinition>Any bacterial organism that can be assigned to the species Clostridium butyricum.</nciodm:CDISCDefinition>
          <nciodm:PreferredTerm>Clostridium butyricum</nciodm:PreferredTerm>
        </EnumeratedItem>
        <EnumeratedItem CodedValue="CLOSTRIDIUM CADAVERIS" nciodm:ExtCodeID="C86274">
          <nciodm:CDISCDefinition>Any bacterial organism that can be assigned to the species Clostridium cadaveris.</nciodm:CDISCDefinition>
          <nciodm:PreferredTerm>Clostridium cadaveris</nciodm:PreferredTerm>
        </EnumeratedItem>
        <EnumeratedItem CodedValue="CLOSTRIDIUM CELATUM" nciodm:ExtCodeID="C86275">
          <nciodm:CDISCDefinition>Any bacterial organism that can be assigned to the species Clostridium celatum.</nciodm:CDISCDefinition>
          <nciodm:PreferredTerm>Clostridium celatum</nciodm:PreferredTerm>
        </EnumeratedItem>
        <EnumeratedItem CodedValue="CLOSTRIDIUM CLOSTRIDIOFORME" nciodm:ExtCodeID="C86276">
          <nciodm:CDISCSynonym>CLOSTRIDIUM CLOSTRIDIIFORME</nciodm:CDISCSynonym>
          <nciodm:CDISCDefinition>Any bacterial organism that can be assigned to the species Clostridium clostridioforme.</nciodm:CDISCDefinition>
          <nciodm:PreferredTerm>Clostridium clostridioforme</nciodm:PreferredTerm>
        </EnumeratedItem>
        <EnumeratedItem CodedValue="CLOSTRIDIUM COCHLEARIUM" nciodm:ExtCodeID="C86277">
          <nciodm:CDISCDefinition>Any bacterial organism that can be assigned to the species Clostridium cochlearium.</nciodm:CDISCDefinition>
          <nciodm:PreferredTerm>Clostridium cochlearium</nciodm:PreferredTerm>
        </EnumeratedItem>
        <EnumeratedItem CodedValue="CLOSTRIDIUM COCLEATUM" nciodm:ExtCodeID="C86278">
          <nciodm:CDISCDefinition>Any bacterial organism that can be assigned to the species Clostridium cocleatum.</nciodm:CDISCDefinition>
          <nciodm:PreferredTerm>Clostridium cocleatum</nciodm:PreferredTerm>
        </EnumeratedItem>
        <EnumeratedItem CodedValue="CLOSTRIDIUM DIFFICILE" nciodm:ExtCodeID="C76276">
          <nciodm:CDISCSynonym>CLOSTRIDIUM DIFFICILIS</nciodm:CDISCSynonym>
          <nciodm:CDISCDefinition>Any bacterial organism that can be assigned to the species Clostridium difficile.</nciodm:CDISCDefinition>
          <nciodm:PreferredTerm>Clostridium difficile</nciodm:PreferredTerm>
        </EnumeratedItem>
        <EnumeratedItem CodedValue="CLOSTRIDIUM FALLAX" nciodm:ExtCodeID="C86279">
          <nciodm:CDISCSynonym>CLOSTRIDIUM PSEUDOFALLAX</nciodm:CDISCSynonym>
          <nciodm:CDISCDefinition>Any bacterial organism that can be assigned to the species Clostridium fallax.</nciodm:CDISCDefinition>
          <nciodm:PreferredTerm>Clostridium fallax</nciodm:PreferredTerm>
        </EnumeratedItem>
        <EnumeratedItem CodedValue="CLOSTRIDIUM GLYCOLICUM" nciodm:ExtCodeID="C86280">
          <nciodm:CDISCDefinition>Any bacterial organism that can be assigned to the species Clostridium glycolicum.</nciodm:CDISCDefinition>
          <nciodm:PreferredTerm>Clostridium glycolicum</nciodm:PreferredTerm>
        </EnumeratedItem>
        <EnumeratedItem CodedValue="CLOSTRIDIUM HAEMOLYTICUM" nciodm:ExtCodeID="C86281">
          <nciodm:CDISCDefinition>Any bacterial organism that can be assigned to the species Clostridium haemolyticum.</nciodm:CDISCDefinition>
          <nciodm:PreferredTerm>Clostridium haemolyticum</nciodm:PreferredTerm>
        </EnumeratedItem>
        <EnumeratedItem CodedValue="CLOSTRIDIUM HISTOLYTICUM" nciodm:ExtCodeID="C86282">
          <nciodm:CDISCDefinition>Any bacterial organism that can be assigned to the species Clostridium histolyticum.</nciodm:CDISCDefinition>
          <nciodm:PreferredTerm>Clostridium histolyticum</nciodm:PreferredTerm>
        </EnumeratedItem>
        <EnumeratedItem CodedValue="CLOSTRIDIUM INNOCUUM" nciodm:ExtCodeID="C86283">
          <nciodm:CDISCDefinition>Any bacterial organism that can be assigned to the species Clostridium innocuum.</nciodm:CDISCDefinition>
          <nciodm:PreferredTerm>Clostridium innocuum</nciodm:PreferredTerm>
        </EnumeratedItem>
        <EnumeratedItem CodedValue="CLOSTRIDIUM LIMOSUM" nciodm:ExtCodeID="C86284">
          <nciodm:CDISCSynonym>CLOSTRIDIUM SPECIES CDC GROUP P-1</nciodm:CDISCSynonym>
          <nciodm:CDISCDefinition>Any bacterial organism that can be assigned to the species Clostridium limosum.</nciodm:CDISCDefinition>
          <nciodm:PreferredTerm>Clostridium limosum</nciodm:PreferredTerm>
        </EnumeratedItem>
        <EnumeratedItem CodedValue="CLOSTRIDIUM NOVYI" nciodm:ExtCodeID="C86285">
          <nciodm:CDISCDefinition>Any bacterial organism that can be assigned to the species Clostridium novyi.</nciodm:CDISCDefinition>
          <nciodm:PreferredTerm>Clostridium novyi</nciodm:PreferredTerm>
        </EnumeratedItem>
        <EnumeratedItem CodedValue="CLOSTRIDIUM OCEANICUM" nciodm:ExtCodeID="C86286">
          <nciodm:CDISCDefinition>Any bacterial organism that can be assigned to the species Clostridium oceanicum.</nciodm:CDISCDefinition>
          <nciodm:PreferredTerm>Clostridium oceanicum</nciodm:PreferredTerm>
        </EnumeratedItem>
        <EnumeratedItem CodedValue="CLOSTRIDIUM PARAPUTRIFICUM" nciodm:ExtCodeID="C86287">
          <nciodm:CDISCDefinition>Any bacterial organism that can be assigned to the species Clostridium paraputrificum.</nciodm:CDISCDefinition>
          <nciodm:PreferredTerm>Clostridium paraputrificum</nciodm:PreferredTerm>
        </EnumeratedItem>
        <EnumeratedItem CodedValue="CLOSTRIDIUM PERFRINGENS" nciodm:ExtCodeID="C86288">
          <nciodm:CDISCSynonym>CLOSTRIDIUM WELCHII</nciodm:CDISCSynonym>
          <nciodm:CDISCDefinition>Any bacterial organism that can be assigned to the species Clostridium perfringens.</nciodm:CDISCDefinition>
          <nciodm:PreferredTerm>Clostridium perfringens</nciodm:PreferredTerm>
        </EnumeratedItem>
        <EnumeratedItem CodedValue="CLOSTRIDIUM PUTRIFICUM" nciodm:ExtCodeID="C86289">
          <nciodm:CDISCSynonym>CLOSTRIDIUM LENTOPUTRESCENS</nciodm:CDISCSynonym>
          <nciodm:CDISCDefinition>Any bacterial organism that can be assigned to the species Clostridium putrificum.</nciodm:CDISCDefinition>
          <nciodm:PreferredTerm>Clostridium putrificum</nciodm:PreferredTerm>
        </EnumeratedItem>
        <EnumeratedItem CodedValue="CLOSTRIDIUM RAMOSUM" nciodm:ExtCodeID="C86290">
          <nciodm:CDISCSynonym>ACTINOMYCES RAMOSUS</nciodm:CDISCSynonym>
          <nciodm:CDISCDefinition>Any bacterial organism that can be assigned to the species Clostridium ramosum.</nciodm:CDISCDefinition>
          <nciodm:PreferredTerm>Clostridium ramosum</nciodm:PreferredTerm>
        </EnumeratedItem>
        <EnumeratedItem CodedValue="CLOSTRIDIUM RECTUM" nciodm:ExtCodeID="C86291">
          <nciodm:CDISCDefinition>Any bacterial organism that can be assigned to the species Clostridium rectum.</nciodm:CDISCDefinition>
          <nciodm:PreferredTerm>Clostridium rectum</nciodm:PreferredTerm>
        </EnumeratedItem>
        <EnumeratedItem CodedValue="CLOSTRIDIUM SEPTICUM" nciodm:ExtCodeID="C86292">
          <nciodm:CDISCDefinition>Any bacterial organism that can be assigned to the species Clostridium septicum.</nciodm:CDISCDefinition>
          <nciodm:PreferredTerm>Clostridium septicum</nciodm:PreferredTerm>
        </EnumeratedItem>
        <EnumeratedItem CodedValue="CLOSTRIDIUM SORDELLII" nciodm:ExtCodeID="C86293">
          <nciodm:CDISCDefinition>Any bacterial organism that can be assigned to the species Clostridium sordellii.</nciodm:CDISCDefinition>
          <nciodm:PreferredTerm>Clostridium sordellii</nciodm:PreferredTerm>
        </EnumeratedItem>
        <EnumeratedItem CodedValue="CLOSTRIDIUM" nciodm:ExtCodeID="C76275">
          <nciodm:CDISCDefinition>Any bacteria that is not assigned to the species level but can be assigned to the Clostridium genus level.</nciodm:CDISCDefinition>
          <nciodm:PreferredTerm>Clostridium</nciodm:PreferredTerm>
        </EnumeratedItem>
        <EnumeratedItem CodedValue="CLOSTRIDIUM SPOROGENES" nciodm:ExtCodeID="C86294">
          <nciodm:CDISCDefinition>Any bacterial organism that can be assigned to the species Clostridium sporogenes.</nciodm:CDISCDefinition>
          <nciodm:PreferredTerm>Clostridium sporogenes</nciodm:PreferredTerm>
        </EnumeratedItem>
        <EnumeratedItem CodedValue="CLOSTRIDIUM SUBTERMINALE" nciodm:ExtCodeID="C86295">
          <nciodm:CDISCDefinition>Any bacterial organism that can be assigned to the species Clostridium subterminale.</nciodm:CDISCDefinition>
          <nciodm:PreferredTerm>Clostridium subterminale</nciodm:PreferredTerm>
        </EnumeratedItem>
        <EnumeratedItem CodedValue="CLOSTRIDIUM SYMBIOSUM" nciodm:ExtCodeID="C86296">
          <nciodm:CDISCSynonym>BACTEROIDES SYMBIOSUS</nciodm:CDISCSynonym>
          <nciodm:CDISCDefinition>Any bacterial organism that can be assigned to the species Clostridium symbiosum.</nciodm:CDISCDefinition>
          <nciodm:PreferredTerm>Clostridium symbiosum</nciodm:PreferredTerm>
        </EnumeratedItem>
        <EnumeratedItem CodedValue="CLOSTRIDIUM TERTIUM" nciodm:ExtCodeID="C86297">
          <nciodm:CDISCDefinition>Any bacterial organism that can be assigned to the species Clostridium tertium.</nciodm:CDISCDefinition>
          <nciodm:PreferredTerm>Clostridium tertium</nciodm:PreferredTerm>
        </EnumeratedItem>
        <EnumeratedItem CodedValue="CLOSTRIDIUM TETANI" nciodm:ExtCodeID="C86298">
          <nciodm:CDISCDefinition>Any bacterial organism that can be assigned to the species Clostridium tetani.</nciodm:CDISCDefinition>
          <nciodm:PreferredTerm>Clostridium tetani</nciodm:PreferredTerm>
        </EnumeratedItem>
        <EnumeratedItem CodedValue="CLOSTRIDIUM TYROBUTYRICUM" nciodm:ExtCodeID="C86299">
          <nciodm:CDISCDefinition>Any bacterial organism that can be assigned to the species Clostridium tyrobutyricum.</nciodm:CDISCDefinition>
          <nciodm:PreferredTerm>Clostridium tyrobutyricum</nciodm:PreferredTerm>
        </EnumeratedItem>
        <EnumeratedItem CodedValue="COAGULASE NEGATIVE STAPHYLOCOCCUS" nciodm:ExtCodeID="C62584">
          <nciodm:CDISCDefinition>Any bacteria assigned to the genus Staphylococcus that does not express the enzyme coagulase.</nciodm:CDISCDefinition>
          <nciodm:PreferredTerm>Coagulase-Negative Staphylococcus</nciodm:PreferredTerm>
        </EnumeratedItem>
        <EnumeratedItem CodedValue="COAGULASE POSITIVE STAPHYLOCOCCUS" nciodm:ExtCodeID="C62585">
          <nciodm:CDISCDefinition>Any bacteria assigned to the genus Staphylococcus that expresses the enzyme coagulase.</nciodm:CDISCDefinition>
          <nciodm:PreferredTerm>Coagulase-Positive Staphylococcus</nciodm:PreferredTerm>
        </EnumeratedItem>
        <EnumeratedItem CodedValue="COLLINSELLA AEROFACIENS" nciodm:ExtCodeID="C86301">
          <nciodm:CDISCSynonym>EUBACTERIUM AEROFACIENS</nciodm:CDISCSynonym>
          <nciodm:CDISCDefinition>Any bacterial organism that can be assigned to the species Collinsella aerofaciens.</nciodm:CDISCDefinition>
          <nciodm:PreferredTerm>Collinsella aerofaciens</nciodm:PreferredTerm>
        </EnumeratedItem>
        <EnumeratedItem CodedValue="COLLINSELLA INTESTINALIS" nciodm:ExtCodeID="C86302">
          <nciodm:CDISCDefinition>Any bacterial organism that can be assigned to the species Collinsella intestinalis.</nciodm:CDISCDefinition>
          <nciodm:PreferredTerm>Collinsella intestinalis</nciodm:PreferredTerm>
        </EnumeratedItem>
        <EnumeratedItem CodedValue="COLLINSELLA" nciodm:ExtCodeID="C86300">
          <nciodm:CDISCDefinition>Any bacteria that is not assigned to the species level but can be assigned to the Collinsella genus level.</nciodm:CDISCDefinition>
          <nciodm:PreferredTerm>Collinsella</nciodm:PreferredTerm>
        </EnumeratedItem>
        <EnumeratedItem CodedValue="COMAMONAS" nciodm:ExtCodeID="C86303">
          <nciodm:CDISCDefinition>Any bacteria that is not assigned to the species level but can be assigned to the Comamonas genus level.</nciodm:CDISCDefinition>
          <nciodm:PreferredTerm>Comamonas</nciodm:PreferredTerm>
        </EnumeratedItem>
        <EnumeratedItem CodedValue="COMAMONAS TERRIGENA" nciodm:ExtCodeID="C86304">
          <nciodm:CDISCSynonym>CDC GROUP EF-19</nciodm:CDISCSynonym>
          <nciodm:CDISCDefinition>Any bacterial organism that can be assigned to the species Comamonas terrigena.</nciodm:CDISCDefinition>
          <nciodm:PreferredTerm>Comamonas terrigena</nciodm:PreferredTerm>
        </EnumeratedItem>
        <EnumeratedItem CodedValue="COMAMONAS TESTOSTERONI" nciodm:ExtCodeID="C86305">
          <nciodm:CDISCSynonym>PSEUDOMONAS TESTOSTERONI</nciodm:CDISCSynonym>
          <nciodm:CDISCDefinition>Any bacterial organism that can be assigned to the species Comamonas testosteroni.</nciodm:CDISCDefinition>
          <nciodm:PreferredTerm>Comamonas testosteroni</nciodm:PreferredTerm>
        </EnumeratedItem>
        <EnumeratedItem CodedValue="CORYNEBACTERIUM ACCOLENS" nciodm:ExtCodeID="C86306">
          <nciodm:CDISCSynonym>CORYNEBACTERIUM GROUP G-1</nciodm:CDISCSynonym>
          <nciodm:CDISCDefinition>Any bacterial organism that can be assigned to the species Corynebacterium accolens.</nciodm:CDISCDefinition>
          <nciodm:PreferredTerm>Corynebacterium accolens</nciodm:PreferredTerm>
        </EnumeratedItem>
        <EnumeratedItem CodedValue="CORYNEBACTERIUM AFERMENTANS" nciodm:ExtCodeID="C86307">
          <nciodm:CDISCSynonym>CORYNEBACTERIUM ANF-1</nciodm:CDISCSynonym>
          <nciodm:CDISCDefinition>Any bacterial organism that can be assigned to the species Corynebacterium afermentans.</nciodm:CDISCDefinition>
          <nciodm:PreferredTerm>Corynebacterium afermentans</nciodm:PreferredTerm>
        </EnumeratedItem>
        <EnumeratedItem CodedValue="CORYNEBACTERIUM AMYCOLATUM" nciodm:ExtCodeID="C86308">
          <nciodm:CDISCDefinition>Any bacterial organism that can be assigned to the species Corynebacterium amycolatum.</nciodm:CDISCDefinition>
          <nciodm:PreferredTerm>Corynebacterium amycolatum</nciodm:PreferredTerm>
        </EnumeratedItem>
        <EnumeratedItem CodedValue="CORYNEBACTERIUM ARGENTORATENSE" nciodm:ExtCodeID="C86309">
          <nciodm:CDISCDefinition>Any bacterial organism that can be assigned to the species Corynebacterium argentoratense.</nciodm:CDISCDefinition>
          <nciodm:PreferredTerm>Corynebacterium argentoratense</nciodm:PreferredTerm>
        </EnumeratedItem>
        <EnumeratedItem CodedValue="CORYNEBACTERIUM AURIS" nciodm:ExtCodeID="C86310">
          <nciodm:CDISCDefinition>Any bacterial organism that can be assigned to the species Corynebacterium auris.</nciodm:CDISCDefinition>
          <nciodm:PreferredTerm>Corynebacterium auris</nciodm:PreferredTerm>
        </EnumeratedItem>
        <EnumeratedItem CodedValue="CORYNEBACTERIUM BOVIS" nciodm:ExtCodeID="C86311">
          <nciodm:CDISCDefinition>Any bacterial organism that can be assigned to the species Corynebacterium bovis.</nciodm:CDISCDefinition>
          <nciodm:PreferredTerm>Corynebacterium bovis</nciodm:PreferredTerm>
        </EnumeratedItem>
        <EnumeratedItem CodedValue="CORYNEBACTERIUM DIPHTHERIAE" nciodm:ExtCodeID="C86312">
          <nciodm:CDISCDefinition>Any bacterial organism that can be assigned to the species Corynebacterium diphtheriae.</nciodm:CDISCDefinition>
          <nciodm:PreferredTerm>Corynebacterium diphtheriae</nciodm:PreferredTerm>
        </EnumeratedItem>
        <EnumeratedItem CodedValue="CORYNEBACTERIUM GENITALIUM" nciodm:ExtCodeID="C86313">
          <nciodm:CDISCDefinition>Any bacterial organism that can be assigned to the species Corynebacterium genitalium.</nciodm:CDISCDefinition>
          <nciodm:PreferredTerm>Corynebacterium genitalium</nciodm:PreferredTerm>
        </EnumeratedItem>
        <EnumeratedItem CodedValue="CORYNEBACTERIUM GLUCURONOLYTICUM" nciodm:ExtCodeID="C86955">
          <nciodm:CDISCDefinition>Any bacterial organism that can be assigned to the species Corynebacterium glucuronolyticum.</nciodm:CDISCDefinition>
          <nciodm:PreferredTerm>Corynebacterium glucuronolyticum</nciodm:PreferredTerm>
        </EnumeratedItem>
        <EnumeratedItem CodedValue="CORYNEBACTERIUM JEIKEIUM" nciodm:ExtCodeID="C76307">
          <nciodm:CDISCSynonym>CDC GROUP JK</nciodm:CDISCSynonym>
          <nciodm:CDISCSynonym>CORYNEBACTERIUM GROUP JK</nciodm:CDISCSynonym>
          <nciodm:CDISCDefinition>Any bacterial organism that can be assigned to the species Corynebacterium jeikeium.</nciodm:CDISCDefinition>
          <nciodm:PreferredTerm>Corynebacterium jeikeium</nciodm:PreferredTerm>
        </EnumeratedItem>
        <EnumeratedItem CodedValue="CORYNEBACTERIUM KUTSCHERI" nciodm:ExtCodeID="C86314">
          <nciodm:CDISCDefinition>Any bacterial organism that can be assigned to the species Corynebacterium kutscheri.</nciodm:CDISCDefinition>
          <nciodm:PreferredTerm>Corynebacterium kutscheri</nciodm:PreferredTerm>
        </EnumeratedItem>
        <EnumeratedItem CodedValue="CORYNEBACTERIUM MACGINLEYI" nciodm:ExtCodeID="C86315">
          <nciodm:CDISCDefinition>Any bacterial organism that can be assigned to the species Corynebacterium macginleyi.</nciodm:CDISCDefinition>
          <nciodm:PreferredTerm>Corynebacterium macginleyi</nciodm:PreferredTerm>
        </EnumeratedItem>
        <EnumeratedItem CodedValue="CORYNEBACTERIUM MATRUCHOTII" nciodm:ExtCodeID="C86316">
          <nciodm:CDISCSynonym>BACTERIONEMA MATRUCHOTII</nciodm:CDISCSynonym>
          <nciodm:CDISCDefinition>Any bacterial organism that can be assigned to the species Corynebacterium matruchotii.</nciodm:CDISCDefinition>
          <nciodm:PreferredTerm>Corynebacterium matruchotii</nciodm:PreferredTerm>
        </EnumeratedItem>
        <EnumeratedItem CodedValue="CORYNEBACTERIUM MINUTISSIMUM" nciodm:ExtCodeID="C86317">
          <nciodm:CDISCDefinition>Any bacterial organism that can be assigned to the species Corynebacterium minutissimum.</nciodm:CDISCDefinition>
          <nciodm:PreferredTerm>Corynebacterium minutissimum</nciodm:PreferredTerm>
        </EnumeratedItem>
        <EnumeratedItem CodedValue="CORYNEBACTERIUM PILOSUM" nciodm:ExtCodeID="C86318">
          <nciodm:CDISCDefinition>Any bacterial organism that can be assigned to the species Corynebacterium pilosum.</nciodm:CDISCDefinition>
          <nciodm:PreferredTerm>Corynebacterium pilosum</nciodm:PreferredTerm>
        </EnumeratedItem>
        <EnumeratedItem CodedValue="CORYNEBACTERIUM PROPINQUUM" nciodm:ExtCodeID="C86319">
          <nciodm:CDISCDefinition>Any bacterial organism that can be assigned to the species Corynebacterium propinquum.</nciodm:CDISCDefinition>
          <nciodm:PreferredTerm>Corynebacterium propinquum</nciodm:PreferredTerm>
        </EnumeratedItem>
        <EnumeratedItem CodedValue="CORYNEBACTERIUM PSEUDODIPHTHERITICUM" nciodm:ExtCodeID="C86320">
          <nciodm:CDISCSynonym>CORYNEBACTERIUM HOFMANNII</nciodm:CDISCSynonym>
          <nciodm:CDISCDefinition>Any bacterial organism that can be assigned to the species Corynebacterium pseudodiphtheriticum.</nciodm:CDISCDefinition>
          <nciodm:PreferredTerm>Corynebacterium pseudodiphtheriticum</nciodm:PreferredTerm>
        </EnumeratedItem>
        <EnumeratedItem CodedValue="CORYNEBACTERIUM PSEUDOTUBERCULOSIS" nciodm:ExtCodeID="C86321">
          <nciodm:CDISCDefinition>Any bacterial organism that can be assigned to the species Corynebacterium pseudotuberculosis.</nciodm:CDISCDefinition>
          <nciodm:PreferredTerm>Corynebacterium pseudotuberculosis</nciodm:PreferredTerm>
        </EnumeratedItem>
        <EnumeratedItem CodedValue="CORYNEBACTERIUM RENALE" nciodm:ExtCodeID="C86322">
          <nciodm:CDISCDefinition>Any bacterial organism that can be assigned to the species Corynebacterium renale.</nciodm:CDISCDefinition>
          <nciodm:PreferredTerm>Corynebacterium renale</nciodm:PreferredTerm>
        </EnumeratedItem>
        <EnumeratedItem CodedValue="CORYNEBACTERIUM" nciodm:ExtCodeID="C76308">
          <nciodm:CDISCDefinition>Any bacteria that is not assigned to the species level but can be assigned to the Corynebacterium genus level.</nciodm:CDISCDefinition>
          <nciodm:PreferredTerm>Corynebacterium</nciodm:PreferredTerm>
        </EnumeratedItem>
        <EnumeratedItem CodedValue="CORYNEBACTERIUM STRIATUM" nciodm:ExtCodeID="C86323">
          <nciodm:CDISCDefinition>Any bacterial organism that can be assigned to the species Corynebacterium striatum.</nciodm:CDISCDefinition>
          <nciodm:PreferredTerm>Corynebacterium striatum</nciodm:PreferredTerm>
        </EnumeratedItem>
        <EnumeratedItem CodedValue="CORYNEBACTERIUM ULCERANS" nciodm:ExtCodeID="C86324">
          <nciodm:CDISCDefinition>Any bacterial organism that can be assigned to the species Corynebacterium ulcerans.</nciodm:CDISCDefinition>
          <nciodm:PreferredTerm>Corynebacterium ulcerans</nciodm:PreferredTerm>
        </EnumeratedItem>
        <EnumeratedItem CodedValue="CORYNEBACTERIUM UREALYTICUM" nciodm:ExtCodeID="C86325">
          <nciodm:CDISCSynonym>CDC GROUP D2</nciodm:CDISCSynonym>
          <nciodm:CDISCSynonym>CORYNEBACTERIUM GROUP D-2</nciodm:CDISCSynonym>
          <nciodm:CDISCDefinition>Any bacterial organism that can be assigned to the species Corynebacterium urealyticum.</nciodm:CDISCDefinition>
          <nciodm:PreferredTerm>Corynebacterium urealyticum</nciodm:PreferredTerm>
        </EnumeratedItem>
        <EnumeratedItem CodedValue="CORYNEBACTERIUM XEROSIS" nciodm:ExtCodeID="C86326">
          <nciodm:CDISCDefinition>Any bacterial organism that can be assigned to the species Corynebacterium xerosis.</nciodm:CDISCDefinition>
          <nciodm:PreferredTerm>Corynebacterium xerosis</nciodm:PreferredTerm>
        </EnumeratedItem>
        <EnumeratedItem CodedValue="CORYNEFORM GRAM-POSITIVE BACILLUS" nciodm:ExtCodeID="C86327">
          <nciodm:CDISCSynonym>CORYNEFORM GRAM-POSITIVE ROD</nciodm:CDISCSynonym>
          <nciodm:CDISCDefinition>Any bacteria whose shape is similar to those bacteria assigned to the Corynebacterium genus and have a cell wall that contains low levels of peptidoglycan and stains pink with the Gram staining technique.</nciodm:CDISCDefinition>
          <nciodm:PreferredTerm>Coryneform Gram Positive Bacillus</nciodm:PreferredTerm>
        </EnumeratedItem>
        <EnumeratedItem CodedValue="COXIELLA BURNETII" nciodm:ExtCodeID="C86328">
          <nciodm:CDISCDefinition>Any bacterial organism that can be assigned to the species Coxiella burnetii.</nciodm:CDISCDefinition>
          <nciodm:PreferredTerm>Coxiella burnetii</nciodm:PreferredTerm>
        </EnumeratedItem>
        <EnumeratedItem CodedValue="COXIELLA" nciodm:ExtCodeID="C76309">
          <nciodm:CDISCDefinition>Any bacteria that is not assigned to the species level but can be assigned to the Coxiella genus level.</nciodm:CDISCDefinition>
          <nciodm:PreferredTerm>Coxiella</nciodm:PreferredTerm>
        </EnumeratedItem>
        <EnumeratedItem CodedValue="CRONOBACTER SAKAZAKII" nciodm:ExtCodeID="C86329">
          <nciodm:CDISCSynonym>ENTEROBACTER SAKAZAKII</nciodm:CDISCSynonym>
          <nciodm:CDISCDefinition>Any bacterial organism that can be assigned to the species Cronobacter sakazakii.</nciodm:CDISCDefinition>
          <nciodm:PreferredTerm>Cronobacter sakazakii</nciodm:PreferredTerm>
        </EnumeratedItem>
        <EnumeratedItem CodedValue="CUPRIAVIDUS PAUCULUS" nciodm:ExtCodeID="C86331">
          <nciodm:CDISCSynonym>CDC GROUP IVC-2</nciodm:CDISCSynonym>
          <nciodm:CDISCSynonym>WAUTERSIA PAUCULA</nciodm:CDISCSynonym>
          <nciodm:CDISCSynonym>RALSTONIA PAUCULA</nciodm:CDISCSynonym>
          <nciodm:CDISCDefinition>Any bacterial organism that can be assigned to the species Cupriavidus pauculus.</nciodm:CDISCDefinition>
          <nciodm:PreferredTerm>Cupriavidus pauculus</nciodm:PreferredTerm>
        </EnumeratedItem>
        <EnumeratedItem CodedValue="CUPRIAVIDUS" nciodm:ExtCodeID="C86330">
          <nciodm:CDISCDefinition>Any bacteria that is not assigned to the species level but can be assigned to the Cupriavidus genus level.</nciodm:CDISCDefinition>
          <nciodm:PreferredTerm>Cupriavidus</nciodm:PreferredTerm>
        </EnumeratedItem>
        <EnumeratedItem CodedValue="DELFTIA ACIDOVORANS" nciodm:ExtCodeID="C86333">
          <nciodm:CDISCSynonym>COMAMONAS ACIDOVORANS</nciodm:CDISCSynonym>
          <nciodm:CDISCSynonym>PSEUDOMONAS ACIDOVORANS</nciodm:CDISCSynonym>
          <nciodm:CDISCDefinition>Any bacterial organism that can be assigned to the species Delftia acidovorans.</nciodm:CDISCDefinition>
          <nciodm:PreferredTerm>Delftia acidovorans</nciodm:PreferredTerm>
        </EnumeratedItem>
        <EnumeratedItem CodedValue="DELFTIA" nciodm:ExtCodeID="C86332">
          <nciodm:CDISCDefinition>Any bacteria that is not assigned to the species level but can be assigned to the Delftia genus level.</nciodm:CDISCDefinition>
          <nciodm:PreferredTerm>Delftia</nciodm:PreferredTerm>
        </EnumeratedItem>
        <EnumeratedItem CodedValue="DERMABACTER HOMINIS" nciodm:ExtCodeID="C86335">
          <nciodm:CDISCDefinition>Any bacterial organism that can be assigned to the species Dermabacter hominis.</nciodm:CDISCDefinition>
          <nciodm:PreferredTerm>Dermabacter hominis</nciodm:PreferredTerm>
        </EnumeratedItem>
        <EnumeratedItem CodedValue="DERMABACTER" nciodm:ExtCodeID="C86334">
          <nciodm:CDISCDefinition>Any bacteria that is not assigned to the species level but can be assigned to the Dermabacter genus level.</nciodm:CDISCDefinition>
          <nciodm:PreferredTerm>Dermabacter</nciodm:PreferredTerm>
        </EnumeratedItem>
        <EnumeratedItem CodedValue="DERMACOCCUS NISHINOMIYAENSIS" nciodm:ExtCodeID="C86336">
          <nciodm:CDISCSynonym>MICROCOCCUS NISHINOMIYAENSIS</nciodm:CDISCSynonym>
          <nciodm:CDISCDefinition>Any bacterial organism that can be assigned to the species Dermacoccus nishinomiyaensis.</nciodm:CDISCDefinition>
          <nciodm:PreferredTerm>Dermacoccus nishinomiyaensis</nciodm:PreferredTerm>
        </EnumeratedItem>
        <EnumeratedItem CodedValue="DERMATOPHILUS CONGOLENSIS" nciodm:ExtCodeID="C86338">
          <nciodm:CDISCDefinition>Any bacterial organism that can be assigned to the species Dermatophilus congolensis.</nciodm:CDISCDefinition>
          <nciodm:PreferredTerm>Dermatophilus congolensis</nciodm:PreferredTerm>
        </EnumeratedItem>
        <EnumeratedItem CodedValue="DERMATOPHILUS" nciodm:ExtCodeID="C86337">
          <nciodm:CDISCDefinition>Any bacteria that is not assigned to the species level but can be assigned to the Dermatophilus genus level.</nciodm:CDISCDefinition>
          <nciodm:PreferredTerm>Dermatophilus</nciodm:PreferredTerm>
        </EnumeratedItem>
        <EnumeratedItem CodedValue="DESULFOVIBRIO DESULFURICANS" nciodm:ExtCodeID="C86340">
          <nciodm:CDISCDefinition>Any bacterial organism that can be assigned to the species Desulfovibrio desulfuricans.</nciodm:CDISCDefinition>
          <nciodm:PreferredTerm>Desulfovibrio desulfuricans</nciodm:PreferredTerm>
        </EnumeratedItem>
        <EnumeratedItem CodedValue="DESULFOVIBRIO FAIRFIELDENSIS" nciodm:ExtCodeID="C86341">
          <nciodm:CDISCDefinition>Any bacterial organism that can be assigned to the species Desulfovibrio fairfieldensis.</nciodm:CDISCDefinition>
          <nciodm:PreferredTerm>Desulfovibrio fairfieldensis</nciodm:PreferredTerm>
        </EnumeratedItem>
        <EnumeratedItem CodedValue="DESULFOVIBRIO PIGER" nciodm:ExtCodeID="C86342">
          <nciodm:CDISCSynonym>DESULFOMONAS PIGRA</nciodm:CDISCSynonym>
          <nciodm:CDISCDefinition>Any bacterial organism that can be assigned to the species Desulfovibrio piger.</nciodm:CDISCDefinition>
          <nciodm:PreferredTerm>Desulfovibrio piger</nciodm:PreferredTerm>
        </EnumeratedItem>
        <EnumeratedItem CodedValue="DESULFOVIBRIO" nciodm:ExtCodeID="C86339">
          <nciodm:CDISCSynonym>DESULFOMONAS SPECIES</nciodm:CDISCSynonym>
          <nciodm:CDISCDefinition>Any bacteria that is not assigned to the species level but can be assigned to the Desulfovibrio genus level.</nciodm:CDISCDefinition>
          <nciodm:PreferredTerm>Desulfovibrio</nciodm:PreferredTerm>
        </EnumeratedItem>
        <EnumeratedItem CodedValue="DIPHTHEROID BACILLUS" nciodm:ExtCodeID="C86343">
          <nciodm:CDISCDefinition>Any of a number of rod-shaped bacteria that resemble Corynebacterium diphtheriae, either in morphology or etiology.</nciodm:CDISCDefinition>
          <nciodm:PreferredTerm>Diptheroid Bacillus</nciodm:PreferredTerm>
        </EnumeratedItem>
        <EnumeratedItem CodedValue="EDWARDSIELLA HOSHINAE" nciodm:ExtCodeID="C86345">
          <nciodm:CDISCDefinition>Any bacterial organism that can be assigned to the species Edwardsiella hoshinae.</nciodm:CDISCDefinition>
          <nciodm:PreferredTerm>Edwardsiella hoshinae</nciodm:PreferredTerm>
        </EnumeratedItem>
        <EnumeratedItem CodedValue="EDWARDSIELLA ICTALURI" nciodm:ExtCodeID="C86346">
          <nciodm:CDISCDefinition>Any bacterial organism that can be assigned to the species Edwardsiella ictaluri.</nciodm:CDISCDefinition>
          <nciodm:PreferredTerm>Edwardsiella ictaluri</nciodm:PreferredTerm>
        </EnumeratedItem>
        <EnumeratedItem CodedValue="EDWARDSIELLA" nciodm:ExtCodeID="C86344">
          <nciodm:CDISCDefinition>Any bacteria that is not assigned to the species level but can be assigned to the Edwardsiella genus level.</nciodm:CDISCDefinition>
          <nciodm:PreferredTerm>Edwardsiella</nciodm:PreferredTerm>
        </EnumeratedItem>
        <EnumeratedItem CodedValue="EDWARDSIELLA TARDA" nciodm:ExtCodeID="C86347">
          <nciodm:CDISCDefinition>Any bacterial organism that can be assigned to the species Edwardsiella tarda.</nciodm:CDISCDefinition>
          <nciodm:PreferredTerm>Edwardsiella tarda</nciodm:PreferredTerm>
        </EnumeratedItem>
        <EnumeratedItem CodedValue="EGGERTHELLA LENTA" nciodm:ExtCodeID="C86349">
          <nciodm:CDISCSynonym>EUBACTERIUM LENTUM</nciodm:CDISCSynonym>
          <nciodm:CDISCDefinition>Any bacterial organism that can be assigned to the species Eggerthella lenta.</nciodm:CDISCDefinition>
          <nciodm:PreferredTerm>Eggerthella lenta</nciodm:PreferredTerm>
        </EnumeratedItem>
        <EnumeratedItem CodedValue="EGGERTHELLA" nciodm:ExtCodeID="C86348">
          <nciodm:CDISCDefinition>Any bacteria that is not assigned to the species level but can be assigned to the Eggerthella genus level.</nciodm:CDISCDefinition>
          <nciodm:PreferredTerm>Eggerthella</nciodm:PreferredTerm>
        </EnumeratedItem>
        <EnumeratedItem CodedValue="EIKENELLA CORRODENS" nciodm:ExtCodeID="C86351">
          <nciodm:CDISCSynonym>CDC GROUP HB-1</nciodm:CDISCSynonym>
          <nciodm:CDISCDefinition>Any bacterial organism that can be assigned to the species Eikenella corrodens.</nciodm:CDISCDefinition>
          <nciodm:PreferredTerm>Eikenella corrodens</nciodm:PreferredTerm>
        </EnumeratedItem>
        <EnumeratedItem CodedValue="EIKENELLA" nciodm:ExtCodeID="C86350">
          <nciodm:CDISCDefinition>Any bacteria that is not assigned to the species level but can be assigned to the Eikenella genus level.</nciodm:CDISCDefinition>
          <nciodm:PreferredTerm>Eikenella</nciodm:PreferredTerm>
        </EnumeratedItem>
        <EnumeratedItem CodedValue="ELIZABETHKINGIA MENINGOCEPTICA" nciodm:ExtCodeID="C86353">
          <nciodm:CDISCSynonym>CHRYSEOBACTERIUM MENINGOSEPTICUM</nciodm:CDISCSynonym>
          <nciodm:CDISCSynonym>FLAVOBACTERIUM MENINGOSEPTICUM</nciodm:CDISCSynonym>
          <nciodm:CDISCDefinition>Any bacterial organism that can be assigned to the species Elizabethkingia meningoceptica.</nciodm:CDISCDefinition>
          <nciodm:PreferredTerm>Elizabethkingia meningoceptica</nciodm:PreferredTerm>
        </EnumeratedItem>
        <EnumeratedItem CodedValue="ELIZABETHKINGIA" nciodm:ExtCodeID="C86352">
          <nciodm:CDISCDefinition>Any bacteria that is not assigned to the species level but can be assigned to the Elizabethkingia genus level.</nciodm:CDISCDefinition>
          <nciodm:PreferredTerm>Elizabethkingia</nciodm:PreferredTerm>
        </EnumeratedItem>
        <EnumeratedItem CodedValue="EMPEDOBACTER BREVIS" nciodm:ExtCodeID="C86355">
          <nciodm:CDISCSynonym>FLAVOBACTERIUM BREVE</nciodm:CDISCSynonym>
          <nciodm:CDISCDefinition>Any bacterial organism that can be assigned to the species Empedobacter brevis.</nciodm:CDISCDefinition>
          <nciodm:PreferredTerm>Empedobacter brevis</nciodm:PreferredTerm>
        </EnumeratedItem>
        <EnumeratedItem CodedValue="EMPEDOBACTER" nciodm:ExtCodeID="C86354">
          <nciodm:CDISCDefinition>Any bacteria that is not assigned to the species level but can be assigned to the Empedobacter genus level.</nciodm:CDISCDefinition>
          <nciodm:PreferredTerm>Empedobacter</nciodm:PreferredTerm>
        </EnumeratedItem>
        <EnumeratedItem CodedValue="ENTEROBACTER AEROGENES" nciodm:ExtCodeID="C86356">
          <nciodm:CDISCSynonym>AEROBACTER AEROGENES</nciodm:CDISCSynonym>
          <nciodm:CDISCDefinition>Any bacterial organism that can be assigned to the species Enterobacter aerogenes.</nciodm:CDISCDefinition>
          <nciodm:PreferredTerm>Enterobacter aerogenes</nciodm:PreferredTerm>
        </EnumeratedItem>
        <EnumeratedItem CodedValue="ENTEROBACTER AMNIGENUS" nciodm:ExtCodeID="C86357">
          <nciodm:CDISCSynonym>ENTEROBACTER AMNIGENUS I</nciodm:CDISCSynonym>
          <nciodm:CDISCDefinition>Any bacterial organism that can be assigned to the species Enterobacter amnigenus.</nciodm:CDISCDefinition>
          <nciodm:PreferredTerm>Enterobacter amnigenus</nciodm:PreferredTerm>
        </EnumeratedItem>
        <EnumeratedItem CodedValue="ENTEROBACTER ASBURIAE" nciodm:ExtCodeID="C86358">
          <nciodm:CDISCSynonym>CDC ENTERIC GROUP 17</nciodm:CDISCSynonym>
          <nciodm:CDISCDefinition>Any bacterial organism that can be assigned to the species Enterobacter asburiae.</nciodm:CDISCDefinition>
          <nciodm:PreferredTerm>Enterobacter asburiae</nciodm:PreferredTerm>
        </EnumeratedItem>
        <EnumeratedItem CodedValue="ENTEROBACTER CANCEROGENUS" nciodm:ExtCodeID="C86359">
          <nciodm:CDISCSynonym>CDC ENTERIC GROUP 19</nciodm:CDISCSynonym>
          <nciodm:CDISCSynonym>ENTEROBACTER TAYLORAE</nciodm:CDISCSynonym>
          <nciodm:CDISCDefinition>Any bacterial organism that can be assigned to the species Enterobacter cancerogenus.</nciodm:CDISCDefinition>
          <nciodm:PreferredTerm>Enterobacter cancerogenus</nciodm:PreferredTerm>
        </EnumeratedItem>
        <EnumeratedItem CodedValue="ENTEROBACTER CLOACAE" nciodm:ExtCodeID="C86360">
          <nciodm:CDISCSynonym>ENTEROBACTER CLOACAE STRAIN 1</nciodm:CDISCSynonym>
          <nciodm:CDISCDefinition>Any bacterial organism that can be assigned to the species Enterobacter cloacae.</nciodm:CDISCDefinition>
          <nciodm:PreferredTerm>Enterobacter cloacae</nciodm:PreferredTerm>
        </EnumeratedItem>
        <EnumeratedItem CodedValue="ENTEROBACTER GERGOVIAE" nciodm:ExtCodeID="C86361">
          <nciodm:CDISCDefinition>Any bacterial organism that can be assigned to the species Enterobacter gergoviae.</nciodm:CDISCDefinition>
          <nciodm:PreferredTerm>Enterobacter gergoviae</nciodm:PreferredTerm>
        </EnumeratedItem>
        <EnumeratedItem CodedValue="ENTEROBACTER HORMAECHEI" nciodm:ExtCodeID="C86362">
          <nciodm:CDISCSynonym>CDC ENTERIC GROUP 75</nciodm:CDISCSynonym>
          <nciodm:CDISCDefinition>Any bacterial organism that can be assigned to the species Enterobacter hormaechei.</nciodm:CDISCDefinition>
          <nciodm:PreferredTerm>Enterobacter hormaechei</nciodm:PreferredTerm>
        </EnumeratedItem>
        <EnumeratedItem CodedValue="ENTEROBACTER" nciodm:ExtCodeID="C76310">
          <nciodm:CDISCDefinition>Any bacteria that is not assigned to the species level but can be assigned to the Enterobacter genus level.</nciodm:CDISCDefinition>
          <nciodm:PreferredTerm>Enterobacter</nciodm:PreferredTerm>
        </EnumeratedItem>
        <EnumeratedItem CodedValue="ENTEROBACTER TAYLORAE" nciodm:ExtCodeID="C86363">
          <nciodm:CDISCDefinition>Any bacterial organism that can be assigned to the species Enterobacter taylorae.</nciodm:CDISCDefinition>
          <nciodm:PreferredTerm>Enterobacter taylorae</nciodm:PreferredTerm>
        </EnumeratedItem>
        <EnumeratedItem CodedValue="ENTEROCOCCUS AVIUM" nciodm:ExtCodeID="C86364">
          <nciodm:CDISCSynonym>STREPTOCOCCUS AVIUM</nciodm:CDISCSynonym>
          <nciodm:CDISCDefinition>Any bacterial organism that can be assigned to the species Enterococcus avium.</nciodm:CDISCDefinition>
          <nciodm:PreferredTerm>Enterococcus avium</nciodm:PreferredTerm>
        </EnumeratedItem>
        <EnumeratedItem CodedValue="ENTEROCOCCUS CASSELIFLAVUS" nciodm:ExtCodeID="C86365">
          <nciodm:CDISCDefinition>Any bacterial organism that can be assigned to the species Enterococcus casseliflavus.</nciodm:CDISCDefinition>
          <nciodm:PreferredTerm>Enterococcus casseliflavus</nciodm:PreferredTerm>
        </EnumeratedItem>
        <EnumeratedItem CodedValue="ENTEROCOCCUS DISPAR" nciodm:ExtCodeID="C86366">
          <nciodm:CDISCDefinition>Any bacterial organism that can be assigned to the species Enterococcus dispar.</nciodm:CDISCDefinition>
          <nciodm:PreferredTerm>Enterococcus dispar</nciodm:PreferredTerm>
        </EnumeratedItem>
        <EnumeratedItem CodedValue="ENTEROCOCCUS DURANS" nciodm:ExtCodeID="C86367">
          <nciodm:CDISCSynonym>STREPTOCOCCUS DURANS</nciodm:CDISCSynonym>
          <nciodm:CDISCDefinition>Any bacterial organism that can be assigned to the species Enterococcus durans.</nciodm:CDISCDefinition>
          <nciodm:PreferredTerm>Enterococcus durans</nciodm:PreferredTerm>
        </EnumeratedItem>
        <EnumeratedItem CodedValue="ENTEROCOCCUS FAECALIS" nciodm:ExtCodeID="C86368">
          <nciodm:CDISCSynonym>STREPTOCOCCUS FAECALIS</nciodm:CDISCSynonym>
          <nciodm:CDISCDefinition>Any bacterial organism that can be assigned to the species Enterococcus faecalis.</nciodm:CDISCDefinition>
          <nciodm:PreferredTerm>Enterococcus faecalis</nciodm:PreferredTerm>
        </EnumeratedItem>
        <EnumeratedItem CodedValue="ENTEROCOCCUS FAECIUM" nciodm:ExtCodeID="C86369">
          <nciodm:CDISCSynonym>STREPTOCOCCUS FAECIUM</nciodm:CDISCSynonym>
          <nciodm:CDISCDefinition>Any bacterial organism that can be assigned to the species Enterococcus faecium.</nciodm:CDISCDefinition>
          <nciodm:PreferredTerm>Enterococcus faecium</nciodm:PreferredTerm>
        </EnumeratedItem>
        <EnumeratedItem CodedValue="ENTEROCOCCUS GALLINARUM" nciodm:ExtCodeID="C86370">
          <nciodm:CDISCDefinition>Any bacterial organism that can be assigned to the species Enterococcus gallinarum.</nciodm:CDISCDefinition>
          <nciodm:PreferredTerm>Enterococcus gallinarum</nciodm:PreferredTerm>
        </EnumeratedItem>
        <EnumeratedItem CodedValue="ENTEROCOCCUS HIRAE" nciodm:ExtCodeID="C86371">
          <nciodm:CDISCDefinition>Any bacterial organism that can be assigned to the species Enterococcus hirae.</nciodm:CDISCDefinition>
          <nciodm:PreferredTerm>Enterococcus hirae</nciodm:PreferredTerm>
        </EnumeratedItem>
        <EnumeratedItem CodedValue="ENTEROCOCCUS MALODORATUS" nciodm:ExtCodeID="C86372">
          <nciodm:CDISCDefinition>Any bacterial organism that can be assigned to the species Enterococcus malodoratus.</nciodm:CDISCDefinition>
          <nciodm:PreferredTerm>Enterococcus malodoratus</nciodm:PreferredTerm>
        </EnumeratedItem>
        <EnumeratedItem CodedValue="ENTEROCOCCUS MUNDTII" nciodm:ExtCodeID="C86373">
          <nciodm:CDISCDefinition>Any bacterial organism that can be assigned to the species Enterococcus mundtii.</nciodm:CDISCDefinition>
          <nciodm:PreferredTerm>Enterococcus mundtii</nciodm:PreferredTerm>
        </EnumeratedItem>
        <EnumeratedItem CodedValue="ENTEROCOCCUS PSEUDOAVIUM" nciodm:ExtCodeID="C86374">
          <nciodm:CDISCDefinition>Any bacterial organism that can be assigned to the species Enterococcus pseudoavium.</nciodm:CDISCDefinition>
          <nciodm:PreferredTerm>Enterococcus pseudoavium</nciodm:PreferredTerm>
        </EnumeratedItem>
        <EnumeratedItem CodedValue="ENTEROCOCCUS RAFFINOSUS" nciodm:ExtCodeID="C86375">
          <nciodm:CDISCDefinition>Any bacterial organism that can be assigned to the species Enterococcus raffinosus.</nciodm:CDISCDefinition>
          <nciodm:PreferredTerm>Enterococcus raffinosus</nciodm:PreferredTerm>
        </EnumeratedItem>
        <EnumeratedItem CodedValue="ENTEROCOCCUS" nciodm:ExtCodeID="C76311">
          <nciodm:CDISCSynonym>PRESUMPTIVE ENTEROCOCCUS</nciodm:CDISCSynonym>
          <nciodm:CDISCDefinition>Any bacteria that is not assigned to the species level but can be assigned to the Enterococcus genus level.</nciodm:CDISCDefinition>
          <nciodm:PreferredTerm>Enterococcus</nciodm:PreferredTerm>
        </EnumeratedItem>
        <EnumeratedItem CodedValue="ERYSIPELOTHRIX RHUSIOPATHIAE" nciodm:ExtCodeID="C86377">
          <nciodm:CDISCDefinition>Any bacterial organism that can be assigned to the species Erysipelothrix rhusiopathiae.</nciodm:CDISCDefinition>
          <nciodm:PreferredTerm>Erysipelothrix rhusiopathiae</nciodm:PreferredTerm>
        </EnumeratedItem>
        <EnumeratedItem CodedValue="ERYSIPELOTHRIX" nciodm:ExtCodeID="C86376">
          <nciodm:CDISCSynonym>ERYSIPELOTHRIX INSIDIOSA</nciodm:CDISCSynonym>
          <nciodm:CDISCDefinition>Any bacteria that is not assigned to the species level but can be assigned to the Erysipelothrix genus level.</nciodm:CDISCDefinition>
          <nciodm:PreferredTerm>Erysipelothrix</nciodm:PreferredTerm>
        </EnumeratedItem>
        <EnumeratedItem CodedValue="ESCHERICHIA ALBERTII" nciodm:ExtCodeID="C86378">
          <nciodm:CDISCDefinition>Any bacterial organism that can be assigned to the species Escherichia albertii.</nciodm:CDISCDefinition>
          <nciodm:PreferredTerm>Escherichia albertii</nciodm:PreferredTerm>
        </EnumeratedItem>
        <EnumeratedItem CodedValue="ESCHERICHIA BLATTAE" nciodm:ExtCodeID="C86379">
          <nciodm:CDISCDefinition>Any bacterial organism that can be assigned to the species Escherichia blattae.</nciodm:CDISCDefinition>
          <nciodm:PreferredTerm>Escherichia blattae</nciodm:PreferredTerm>
        </EnumeratedItem>
        <EnumeratedItem CodedValue="ESCHERICHIA COLI" nciodm:ExtCodeID="C14206">
          <nciodm:CDISCSynonym>E. COLI</nciodm:CDISCSynonym>
          <nciodm:CDISCDefinition>Any bacterial organism that can be assigned to the species Escherichia coli.</nciodm:CDISCDefinition>
          <nciodm:PreferredTerm>Escherichia coli</nciodm:PreferredTerm>
        </EnumeratedItem>
        <EnumeratedItem CodedValue="ESCHERICHIA COLI O111" nciodm:ExtCodeID="C86881">
          <nciodm:CDISCDefinition>Any bacterial organism that can be assigned to the species Escherichia coli and strain O111.</nciodm:CDISCDefinition>
          <nciodm:PreferredTerm>Escherichia coli and strain O111</nciodm:PreferredTerm>
        </EnumeratedItem>
        <EnumeratedItem CodedValue="ESCHERICHIA COLI O157 (NOT H7)" nciodm:ExtCodeID="C86882">
          <nciodm:CDISCDefinition>Any bacterial organism that can be assigned to the species Escherichia coli and strain O157.</nciodm:CDISCDefinition>
          <nciodm:PreferredTerm>Escherichia coli and strain O157</nciodm:PreferredTerm>
        </EnumeratedItem>
        <EnumeratedItem CodedValue="ESCHERICHIA COLI O157:H7" nciodm:ExtCodeID="C86883">
          <nciodm:CDISCDefinition>Any bacterial organism that can be assigned to the species Escherichia coli and strain O157:H7.</nciodm:CDISCDefinition>
          <nciodm:PreferredTerm>Escherichia coli and strain O157:H7</nciodm:PreferredTerm>
        </EnumeratedItem>
        <EnumeratedItem CodedValue="ESCHERICHIA COLI O26" nciodm:ExtCodeID="C86884">
          <nciodm:CDISCDefinition>Any bacterial organism that can be assigned to the species Escherichia coli and strain O26.</nciodm:CDISCDefinition>
          <nciodm:PreferredTerm>Escherichia coli and strain O26</nciodm:PreferredTerm>
        </EnumeratedItem>
        <EnumeratedItem CodedValue="ESCHERICHIA FERGUSONII" nciodm:ExtCodeID="C86380">
          <nciodm:CDISCSynonym>CDC ENTERIC GROUP 10</nciodm:CDISCSynonym>
          <nciodm:CDISCDefinition>Any bacterial organism that can be assigned to the species Escherichia fergusonii.</nciodm:CDISCDefinition>
          <nciodm:PreferredTerm>Escherichia fergusonii</nciodm:PreferredTerm>
        </EnumeratedItem>
        <EnumeratedItem CodedValue="ESCHERICHIA HERMANNII" nciodm:ExtCodeID="C86381">
          <nciodm:CDISCSynonym>CDC ENTERIC GROUP 11</nciodm:CDISCSynonym>
          <nciodm:CDISCDefinition>Any bacterial organism that can be assigned to the species Escherichia hermannii.</nciodm:CDISCDefinition>
          <nciodm:PreferredTerm>Escherichia hermannii</nciodm:PreferredTerm>
        </EnumeratedItem>
        <EnumeratedItem CodedValue="ESCHERICHIA" nciodm:ExtCodeID="C77208">
          <nciodm:CDISCDefinition>Any bacteria that is not assigned to the species level but can be assigned to the Escherichia genus level.</nciodm:CDISCDefinition>
          <nciodm:PreferredTerm>Escherichia</nciodm:PreferredTerm>
        </EnumeratedItem>
        <EnumeratedItem CodedValue="ESCHERICHIA VULNERIS" nciodm:ExtCodeID="C86382">
          <nciodm:CDISCSynonym>CDC ENTERIC GROUP 1</nciodm:CDISCSynonym>
          <nciodm:CDISCDefinition>Any bacterial organism that can be assigned to the species Escherichia vulneris.</nciodm:CDISCDefinition>
          <nciodm:PreferredTerm>Escherichia vulneris</nciodm:PreferredTerm>
        </EnumeratedItem>
        <EnumeratedItem CodedValue="EUBACTERIUM ADACTOLYTICUM" nciodm:ExtCodeID="C86384">
          <nciodm:CDISCDefinition>Any bacterial organism that can be assigned to the species Eubacterium adactolyticum.</nciodm:CDISCDefinition>
          <nciodm:PreferredTerm>Eubacterium adactolyticum</nciodm:PreferredTerm>
        </EnumeratedItem>
        <EnumeratedItem CodedValue="EUBACTERIUM CONTORTUM" nciodm:ExtCodeID="C86385">
          <nciodm:CDISCDefinition>Any bacterial organism that can be assigned to the species Eubacterium contortum.</nciodm:CDISCDefinition>
          <nciodm:PreferredTerm>Eubacterium contortum</nciodm:PreferredTerm>
        </EnumeratedItem>
        <EnumeratedItem CodedValue="EUBACTERIUM LIMOSUM" nciodm:ExtCodeID="C86386">
          <nciodm:CDISCDefinition>Any bacterial organism that can be assigned to the species Eubacterium limosum.</nciodm:CDISCDefinition>
          <nciodm:PreferredTerm>Eubacterium limosum</nciodm:PreferredTerm>
        </EnumeratedItem>
        <EnumeratedItem CodedValue="EUBACTERIUM NODATUM" nciodm:ExtCodeID="C86387">
          <nciodm:CDISCDefinition>Any bacterial organism that can be assigned to the species Eubacterium nodatum.</nciodm:CDISCDefinition>
          <nciodm:PreferredTerm>Eubacterium nodatum</nciodm:PreferredTerm>
        </EnumeratedItem>
        <EnumeratedItem CodedValue="EUBACTERIUM RECTALE" nciodm:ExtCodeID="C86388">
          <nciodm:CDISCDefinition>Any bacterial organism that can be assigned to the species Eubacterium rectale.</nciodm:CDISCDefinition>
          <nciodm:PreferredTerm>Eubacterium rectale</nciodm:PreferredTerm>
        </EnumeratedItem>
        <EnumeratedItem CodedValue="EUBACTERIUM" nciodm:ExtCodeID="C86383">
          <nciodm:CDISCDefinition>Any bacteria that is not assigned to the species level but can be assigned to the Eubacterium genus level.</nciodm:CDISCDefinition>
          <nciodm:PreferredTerm>Eubacterium</nciodm:PreferredTerm>
        </EnumeratedItem>
        <EnumeratedItem CodedValue="EUBACTERIUM VENTRIOSUM" nciodm:ExtCodeID="C86389">
          <nciodm:CDISCDefinition>Any bacterial organism that can be assigned to the species Eubacterium ventriosum.</nciodm:CDISCDefinition>
          <nciodm:PreferredTerm>Eubacterium ventriosum</nciodm:PreferredTerm>
        </EnumeratedItem>
        <EnumeratedItem CodedValue="EWINGELLA AMERICANA" nciodm:ExtCodeID="C86391">
          <nciodm:CDISCSynonym>CDC ENTERIC GROUP 40</nciodm:CDISCSynonym>
          <nciodm:CDISCDefinition>Any bacterial organism that can be assigned to the species Ewingella americana.</nciodm:CDISCDefinition>
          <nciodm:PreferredTerm>Ewingella americana</nciodm:PreferredTerm>
        </EnumeratedItem>
        <EnumeratedItem CodedValue="EWINGELLA" nciodm:ExtCodeID="C86390">
          <nciodm:CDISCDefinition>Any bacteria that is not assigned to the species level but can be assigned to the Ewingella genus level.</nciodm:CDISCDefinition>
          <nciodm:PreferredTerm>Ewingella</nciodm:PreferredTerm>
        </EnumeratedItem>
        <EnumeratedItem CodedValue="EXIGUOBACTERIUM ACETYLICUM" nciodm:ExtCodeID="C86886">
          <nciodm:CDISCSynonym>BREVIBACTERIUM ACETYLICUM</nciodm:CDISCSynonym>
          <nciodm:CDISCDefinition>Any bacterial organism that can be assigned to the species Exiguobacterium acetylicum.</nciodm:CDISCDefinition>
          <nciodm:PreferredTerm>Exiguobacterium acetylicum</nciodm:PreferredTerm>
        </EnumeratedItem>
        <EnumeratedItem CodedValue="EXIGUOBACTERIUM" nciodm:ExtCodeID="C86885">
          <nciodm:CDISCDefinition>Any bacteria that is not assigned to the species level but can be assigned to the Exiguobacterium genus level.</nciodm:CDISCDefinition>
          <nciodm:PreferredTerm>Exiguobacterium</nciodm:PreferredTerm>
        </EnumeratedItem>
        <EnumeratedItem CodedValue="FACKLAMIA" nciodm:ExtCodeID="C86392">
          <nciodm:CDISCDefinition>Any bacteria that is not assigned to the species level but can be assigned to the Facklamia genus level.</nciodm:CDISCDefinition>
          <nciodm:PreferredTerm>Facklamia</nciodm:PreferredTerm>
        </EnumeratedItem>
        <EnumeratedItem CodedValue="FAECALIBACTERIUM PRAUSNITZII" nciodm:ExtCodeID="C86394">
          <nciodm:CDISCSynonym>FUSOBACTERIUM PRAUSNITZII</nciodm:CDISCSynonym>
          <nciodm:CDISCDefinition>Any bacterial organism that can be assigned to the species Faecalibacterium prausnitzii.</nciodm:CDISCDefinition>
          <nciodm:PreferredTerm>Faecalibacterium prausnitzii</nciodm:PreferredTerm>
        </EnumeratedItem>
        <EnumeratedItem CodedValue="FAECALIBACTERIUM" nciodm:ExtCodeID="C86393">
          <nciodm:CDISCDefinition>Any bacteria that is not assigned to the species level but can be assigned to the Faecalibacterium genus level.</nciodm:CDISCDefinition>
          <nciodm:PreferredTerm>Faecalibacterium</nciodm:PreferredTerm>
        </EnumeratedItem>
        <EnumeratedItem CodedValue="FERMENTATIVE GRAM-NEGATIVE BACILLUS" nciodm:ExtCodeID="C86395">
          <nciodm:CDISCSynonym>FERMENTATIVE GRAM-NEGATIVE ROD</nciodm:CDISCSynonym>
          <nciodm:CDISCDefinition>Any rod-shaped, anaerobic bacteria that can convert carbohydrates into acids and alcohols and has a cell wall contains low levels of peptidoglycan and stains pink with the Gram staining technique.</nciodm:CDISCDefinition>
          <nciodm:PreferredTerm>Fermentative Gram Negative Bacillus</nciodm:PreferredTerm>
        </EnumeratedItem>
        <EnumeratedItem CodedValue="FINEGOLDIA MAGNA" nciodm:ExtCodeID="C86888">
          <nciodm:CDISCSynonym>PEPTOSTREPTOCOCCUS MAGNUS</nciodm:CDISCSynonym>
          <nciodm:CDISCDefinition>Any bacterial organism that can be assigned to the species Finegoldia magna.</nciodm:CDISCDefinition>
          <nciodm:PreferredTerm>Finegoldia magna</nciodm:PreferredTerm>
        </EnumeratedItem>
        <EnumeratedItem CodedValue="FINEGOLDIA" nciodm:ExtCodeID="C86887">
          <nciodm:CDISCDefinition>Any bacteria that is not assigned to the species level but can be assigned to the Finegoldia genus level.</nciodm:CDISCDefinition>
          <nciodm:PreferredTerm>Finegoldia</nciodm:PreferredTerm>
        </EnumeratedItem>
        <EnumeratedItem CodedValue="FLAVOBACTERIUM" nciodm:ExtCodeID="C76320">
          <nciodm:CDISCDefinition>Any bacteria that is not assigned to the species level but can be assigned to the Flavobacterium genus level.</nciodm:CDISCDefinition>
          <nciodm:PreferredTerm>Flavobacterium</nciodm:PreferredTerm>
        </EnumeratedItem>
        <EnumeratedItem CodedValue="FRANCISELLA" nciodm:ExtCodeID="C86396">
          <nciodm:CDISCDefinition>Any bacteria that is not assigned to the species level but can be assigned to the Francisella genus level.</nciodm:CDISCDefinition>
          <nciodm:PreferredTerm>Francisella</nciodm:PreferredTerm>
        </EnumeratedItem>
        <EnumeratedItem CodedValue="FRANCISELLA TULARENSIS" nciodm:ExtCodeID="C86397">
          <nciodm:CDISCSynonym>PASTEURELLA TULARENSIS</nciodm:CDISCSynonym>
          <nciodm:CDISCDefinition>Any bacterial organism that can be assigned to the species Francisella tularensis.</nciodm:CDISCDefinition>
          <nciodm:PreferredTerm>Francisella tularensis</nciodm:PreferredTerm>
        </EnumeratedItem>
        <EnumeratedItem CodedValue="FUSOBACTERIUM GONIDIAFORMANS" nciodm:ExtCodeID="C86398">
          <nciodm:CDISCDefinition>Any bacterial organism that can be assigned to the species Fusobacterium gonidiaformans.</nciodm:CDISCDefinition>
          <nciodm:PreferredTerm>Fusobacterium gonidiaformans</nciodm:PreferredTerm>
        </EnumeratedItem>
        <EnumeratedItem CodedValue="FUSOBACTERIUM MORTIFERUM" nciodm:ExtCodeID="C86399">
          <nciodm:CDISCDefinition>Any bacterial organism that can be assigned to the species Fusobacterium mortiferum.</nciodm:CDISCDefinition>
          <nciodm:PreferredTerm>Fusobacterium mortiferum</nciodm:PreferredTerm>
        </EnumeratedItem>
        <EnumeratedItem CodedValue="FUSOBACTERIUM NECROGENES" nciodm:ExtCodeID="C86400">
          <nciodm:CDISCDefinition>Any bacterial organism that can be assigned to the species Fusobacterium necrogenes.</nciodm:CDISCDefinition>
          <nciodm:PreferredTerm>Fusobacterium necrogenes</nciodm:PreferredTerm>
        </EnumeratedItem>
        <EnumeratedItem CodedValue="FUSOBACTERIUM NECROPHORUM" nciodm:ExtCodeID="C86401">
          <nciodm:CDISCDefinition>Any bacterial organism that can be assigned to the species Fusobacterium necrophorum.</nciodm:CDISCDefinition>
          <nciodm:PreferredTerm>Fusobacterium necrophorum</nciodm:PreferredTerm>
        </EnumeratedItem>
        <EnumeratedItem CodedValue="FUSOBACTERIUM NUCLEATUM" nciodm:ExtCodeID="C86404">
          <nciodm:CDISCDefinition>Any bacterial organism that can be assigned to the species Fusobacterium nucleatum.</nciodm:CDISCDefinition>
          <nciodm:PreferredTerm>Fusobacterium nucleatum</nciodm:PreferredTerm>
        </EnumeratedItem>
        <EnumeratedItem CodedValue="FUSOBACTERIUM RUSSII" nciodm:ExtCodeID="C86405">
          <nciodm:CDISCDefinition>Any bacterial organism that can be assigned to the species Fusobacterium russii.</nciodm:CDISCDefinition>
          <nciodm:PreferredTerm>Fusobacterium russii</nciodm:PreferredTerm>
        </EnumeratedItem>
        <EnumeratedItem CodedValue="FUSOBACTERIUM" nciodm:ExtCodeID="C76323">
          <nciodm:CDISCDefinition>Any bacteria that is not assigned to the species level but can be assigned to the Fusobacterium genus level.</nciodm:CDISCDefinition>
          <nciodm:PreferredTerm>Fusobacterium</nciodm:PreferredTerm>
        </EnumeratedItem>
        <EnumeratedItem CodedValue="FUSOBACTERIUM ULCERANS" nciodm:ExtCodeID="C86406">
          <nciodm:CDISCDefinition>Any bacterial organism that can be assigned to the species Fusobacterium ulcerans.</nciodm:CDISCDefinition>
          <nciodm:PreferredTerm>Fusobacterium ulcerans</nciodm:PreferredTerm>
        </EnumeratedItem>
        <EnumeratedItem CodedValue="FUSOBACTERIUM VARIUM" nciodm:ExtCodeID="C86407">
          <nciodm:CDISCSynonym>FUSOBACTERIUM PSEUDONECROPHORUM</nciodm:CDISCSynonym>
          <nciodm:CDISCSynonym>FUSOBACTERIUM NECROPHORUM BIOVAR C</nciodm:CDISCSynonym>
          <nciodm:CDISCDefinition>Any bacterial organism that can be assigned to the species Fusobacterium varium.</nciodm:CDISCDefinition>
          <nciodm:PreferredTerm>Fusobacterium varium</nciodm:PreferredTerm>
        </EnumeratedItem>
        <EnumeratedItem CodedValue="GARDNERELLA" nciodm:ExtCodeID="C86409">
          <nciodm:CDISCDefinition>Any bacteria that is not assigned to the species level but can be assigned to the Gardnerella genus level.</nciodm:CDISCDefinition>
          <nciodm:PreferredTerm>Gardnerella</nciodm:PreferredTerm>
        </EnumeratedItem>
        <EnumeratedItem CodedValue="GARDNERELLA VAGINALIS" nciodm:ExtCodeID="C86410">
          <nciodm:CDISCSynonym>CORYNEBACTERIUM VAGINALIS</nciodm:CDISCSynonym>
          <nciodm:CDISCDefinition>Any bacterial organism that can be assigned to the species Gardnerella vaginalis.</nciodm:CDISCDefinition>
          <nciodm:PreferredTerm>Gardnerella vaginalis</nciodm:PreferredTerm>
        </EnumeratedItem>
        <EnumeratedItem CodedValue="GEMELLA BERGERI" nciodm:ExtCodeID="C86890">
          <nciodm:CDISCDefinition>Any bacterial organism that can be assigned to the species Gemella bergeri.</nciodm:CDISCDefinition>
          <nciodm:PreferredTerm>Gemella bergeri</nciodm:PreferredTerm>
        </EnumeratedItem>
        <EnumeratedItem CodedValue="GEMELLA HAEMOLYSANS" nciodm:ExtCodeID="C86891">
          <nciodm:CDISCSynonym>NEISSERIA HAEMOLYSANS</nciodm:CDISCSynonym>
          <nciodm:CDISCDefinition>Any bacterial organism that can be assigned to the species Gemella haemolysans.</nciodm:CDISCDefinition>
          <nciodm:PreferredTerm>Gemella haemolysans</nciodm:PreferredTerm>
        </EnumeratedItem>
        <EnumeratedItem CodedValue="GEMELLA MORBILLORUM" nciodm:ExtCodeID="C86892">
          <nciodm:CDISCSynonym>STREPTOCOCCUS MORBILLORUM</nciodm:CDISCSynonym>
          <nciodm:CDISCDefinition>Any bacterial organism that can be assigned to the species Gemella morbillorum.</nciodm:CDISCDefinition>
          <nciodm:PreferredTerm>Gemella morbillorum</nciodm:PreferredTerm>
        </EnumeratedItem>
        <EnumeratedItem CodedValue="GEMELLA SANGUINIS" nciodm:ExtCodeID="C86893">
          <nciodm:CDISCDefinition>Any bacterial organism that can be assigned to the species Gemella sanguinis.</nciodm:CDISCDefinition>
          <nciodm:PreferredTerm>Gemella sanguinis</nciodm:PreferredTerm>
        </EnumeratedItem>
        <EnumeratedItem CodedValue="GEMELLA" nciodm:ExtCodeID="C86889">
          <nciodm:CDISCDefinition>Any bacteria that is not assigned to the species level but can be assigned to the Gemella genus level.</nciodm:CDISCDefinition>
          <nciodm:PreferredTerm>Gemella</nciodm:PreferredTerm>
        </EnumeratedItem>
        <EnumeratedItem CodedValue="GLOBICATELLA SANGUINIS" nciodm:ExtCodeID="C86412">
          <nciodm:CDISCSynonym>GLOBICATELLA SANGUIS</nciodm:CDISCSynonym>
          <nciodm:CDISCDefinition>Any bacterial organism that can be assigned to the species Globicatella sanguinis.</nciodm:CDISCDefinition>
          <nciodm:PreferredTerm>Globicatella sanguinis</nciodm:PreferredTerm>
        </EnumeratedItem>
        <EnumeratedItem CodedValue="GLOBICATELLA" nciodm:ExtCodeID="C86411">
          <nciodm:CDISCDefinition>Any bacteria that is not assigned to the species level but can be assigned to the Globicatella genus level.</nciodm:CDISCDefinition>
          <nciodm:PreferredTerm>Globicatella</nciodm:PreferredTerm>
        </EnumeratedItem>
        <EnumeratedItem CodedValue="GLOBICATELLA SULFIDIFACIENS" nciodm:ExtCodeID="C86413">
          <nciodm:CDISCDefinition>Any bacterial organism that can be assigned to the species Globicatella sulfidifaciens.</nciodm:CDISCDefinition>
          <nciodm:PreferredTerm>Globicatella sulfidifaciens</nciodm:PreferredTerm>
        </EnumeratedItem>
        <EnumeratedItem CodedValue="GORDONIA AICHIENSIS" nciodm:ExtCodeID="C86415">
          <nciodm:CDISCSynonym>TSUKAMURELLA AICHIENSIS</nciodm:CDISCSynonym>
          <nciodm:CDISCSynonym>GORDONA AICHIENSIS</nciodm:CDISCSynonym>
          <nciodm:CDISCDefinition>Any bacterial organism that can be assigned to the species Gordonia aichiensis.</nciodm:CDISCDefinition>
          <nciodm:PreferredTerm>Gordonia aichiensis</nciodm:PreferredTerm>
        </EnumeratedItem>
        <EnumeratedItem CodedValue="GORDONIA BRONCHIALIS" nciodm:ExtCodeID="C86416">
          <nciodm:CDISCSynonym>RHODOCOCCUS BRONCHIALIS</nciodm:CDISCSynonym>
          <nciodm:CDISCSynonym>GORDONA BRONCHIALIS</nciodm:CDISCSynonym>
          <nciodm:CDISCDefinition>Any bacterial organism that can be assigned to the species Gordonia bronchialis.</nciodm:CDISCDefinition>
          <nciodm:PreferredTerm>Gordonia bronchialis</nciodm:PreferredTerm>
        </EnumeratedItem>
        <EnumeratedItem CodedValue="GORDONIA RUBRIPERTINCTA" nciodm:ExtCodeID="C86417">
          <nciodm:CDISCSynonym>RHODOCOCCUS RUBRIPERTINCTA</nciodm:CDISCSynonym>
          <nciodm:CDISCSynonym>GORDONA RUBROPERTINCTA</nciodm:CDISCSynonym>
          <nciodm:CDISCDefinition>Any bacterial organism that can be assigned to the species Gordonia rubripertincta.</nciodm:CDISCDefinition>
          <nciodm:PreferredTerm>Gordonia rubripertincta</nciodm:PreferredTerm>
        </EnumeratedItem>
        <EnumeratedItem CodedValue="GORDONIA" nciodm:ExtCodeID="C86414">
          <nciodm:CDISCDefinition>Any bacteria that is not assigned to the species level but can be assigned to the Gordonia genus level.</nciodm:CDISCDefinition>
          <nciodm:PreferredTerm>Gordonia</nciodm:PreferredTerm>
        </EnumeratedItem>
        <EnumeratedItem CodedValue="GORDONIA SPUTI" nciodm:ExtCodeID="C86418">
          <nciodm:CDISCSynonym>GORDONA SPUTI</nciodm:CDISCSynonym>
          <nciodm:CDISCDefinition>Any bacterial organism that can be assigned to the species Gordonia sputi.</nciodm:CDISCDefinition>
          <nciodm:PreferredTerm>Gordonia sputi</nciodm:PreferredTerm>
        </EnumeratedItem>
        <EnumeratedItem CodedValue="GORDONIA TERRAE" nciodm:ExtCodeID="C86419">
          <nciodm:CDISCSynonym>RHODOCOCCUS TERRAE</nciodm:CDISCSynonym>
          <nciodm:CDISCSynonym>GORDONA TERRAE</nciodm:CDISCSynonym>
          <nciodm:CDISCDefinition>Any bacterial organism that can be assigned to the species Gordonia terrae.</nciodm:CDISCDefinition>
          <nciodm:PreferredTerm>Gordonia terrae</nciodm:PreferredTerm>
        </EnumeratedItem>
        <EnumeratedItem CodedValue="GRACILIBACILLUS" nciodm:ExtCodeID="C86420">
          <nciodm:CDISCDefinition>Any bacteria that is not assigned to the species level but can be assigned to the Gracilibacillus genus level.</nciodm:CDISCDefinition>
          <nciodm:PreferredTerm>Gracilibacillus</nciodm:PreferredTerm>
        </EnumeratedItem>
        <EnumeratedItem CodedValue="GRAM-NEGATIVE BACILLUS" nciodm:ExtCodeID="C86421">
          <nciodm:CDISCDefinition>Any rod-shaped bacteria that contains low levels of peptidoglycan in its cell wall and stains pink with the Gram staining technique.</nciodm:CDISCDefinition>
          <nciodm:PreferredTerm>Gram Negative Bacillus</nciodm:PreferredTerm>
        </EnumeratedItem>
        <EnumeratedItem CodedValue="GRAM-NEGATIVE COCCUS" nciodm:ExtCodeID="C86422">
          <nciodm:CDISCDefinition>Any spherical-shaped bacteria that contains low levels of peptidoglycan in its cell wall and stains pink with the Gram staining technique.</nciodm:CDISCDefinition>
          <nciodm:PreferredTerm>Gram Negative Coccus</nciodm:PreferredTerm>
        </EnumeratedItem>
        <EnumeratedItem CodedValue="GRAM-POSITIVE BACILLUS" nciodm:ExtCodeID="C62589">
          <nciodm:CDISCDefinition>Any rod-shaped bacteria that has a peptidoglycan-rich cell wall that stains dark purple with the Gram staining technique.</nciodm:CDISCDefinition>
          <nciodm:PreferredTerm>Gram Positive Bacillus</nciodm:PreferredTerm>
        </EnumeratedItem>
        <EnumeratedItem CodedValue="GRAM-POSITIVE COCCUS" nciodm:ExtCodeID="C86424">
          <nciodm:CDISCDefinition>Any spherical-shaped bacteria that has a peptidoglycan-rich cell wall that stains dark purple with the Gram staining technique.</nciodm:CDISCDefinition>
          <nciodm:PreferredTerm>Gram Positive Coccus</nciodm:PreferredTerm>
        </EnumeratedItem>
        <EnumeratedItem CodedValue="GRANULICATELLA ADIACENS" nciodm:ExtCodeID="C86426">
          <nciodm:CDISCSynonym>ABIOTROPHIA ADJACENS</nciodm:CDISCSynonym>
          <nciodm:CDISCSynonym>STREPTOCOCCUS ADJACENS</nciodm:CDISCSynonym>
          <nciodm:CDISCDefinition>Any bacterial organism that can be assigned to the species Granulicatella adiacens.</nciodm:CDISCDefinition>
          <nciodm:PreferredTerm>Granulicatella adiacens</nciodm:PreferredTerm>
        </EnumeratedItem>
        <EnumeratedItem CodedValue="GRANULICATELLA" nciodm:ExtCodeID="C86425">
          <nciodm:CDISCDefinition>Any bacteria that is not assigned to the species level but can be assigned to the Granulicatella genus level.</nciodm:CDISCDefinition>
          <nciodm:PreferredTerm>Granulicatella</nciodm:PreferredTerm>
        </EnumeratedItem>
        <EnumeratedItem CodedValue="GRIMONTIA HOLLISAE" nciodm:ExtCodeID="C86427">
          <nciodm:CDISCSynonym>VIBRIO HOLLISAE</nciodm:CDISCSynonym>
          <nciodm:CDISCDefinition>Any bacterial organism that can be assigned to the species Grimontia hollisae.</nciodm:CDISCDefinition>
          <nciodm:PreferredTerm>Grimontia hollisae</nciodm:PreferredTerm>
        </EnumeratedItem>
        <EnumeratedItem CodedValue="HAEMOPHILUS AEGYPTIUS" nciodm:ExtCodeID="C86428">
          <nciodm:CDISCDefinition>Any bacterial organism that can be assigned to the species Haemophilus aegyptius.</nciodm:CDISCDefinition>
          <nciodm:PreferredTerm>Haemophilus aegyptius</nciodm:PreferredTerm>
        </EnumeratedItem>
        <EnumeratedItem CodedValue="HAEMOPHILUS HAEMOGLOBINOPHILUS" nciodm:ExtCodeID="C86429">
          <nciodm:CDISCDefinition>Any bacterial organism that can be assigned to the species Haemophilus haemoglobinophilus.</nciodm:CDISCDefinition>
          <nciodm:PreferredTerm>Haemophilus haemoglobinophilus</nciodm:PreferredTerm>
        </EnumeratedItem>
        <EnumeratedItem CodedValue="HAEMOPHILUS HAEMOLYTICUS" nciodm:ExtCodeID="C86430">
          <nciodm:CDISCDefinition>Any bacterial organism that can be assigned to the species Haemophilus haemolyticus.</nciodm:CDISCDefinition>
          <nciodm:PreferredTerm>Haemophilus haemolyticus</nciodm:PreferredTerm>
        </EnumeratedItem>
        <EnumeratedItem CodedValue="HAEMOPHILUS INFLUENZAE" nciodm:ExtCodeID="C86431">
          <nciodm:CDISCSynonym>H-FLU</nciodm:CDISCSynonym>
          <nciodm:CDISCDefinition>Any bacterial organism that can be assigned to the species Haemophilus influenzae.</nciodm:CDISCDefinition>
          <nciodm:PreferredTerm>Haemophilus influenzae</nciodm:PreferredTerm>
        </EnumeratedItem>
        <EnumeratedItem CodedValue="HAEMOPHILUS PARAHAEMOLYTICUS" nciodm:ExtCodeID="C86432">
          <nciodm:CDISCDefinition>Any bacterial organism that can be assigned to the species Haemophilus parahaemolyticus.</nciodm:CDISCDefinition>
          <nciodm:PreferredTerm>Haemophilus parahaemolyticus</nciodm:PreferredTerm>
        </EnumeratedItem>
        <EnumeratedItem CodedValue="HAEMOPHILUS PARAINFLUENZAE" nciodm:ExtCodeID="C86433">
          <nciodm:CDISCSynonym>HEMOPHILUS PARAINFLUENZAE</nciodm:CDISCSynonym>
          <nciodm:CDISCDefinition>Any bacterial organism that can be assigned to the species Haemophilus parainfluenzae.</nciodm:CDISCDefinition>
          <nciodm:PreferredTerm>Haemophilus parainfluenzae</nciodm:PreferredTerm>
        </EnumeratedItem>
        <EnumeratedItem CodedValue="HAEMOPHILUS" nciodm:ExtCodeID="C76324">
          <nciodm:CDISCDefinition>Any bacteria that is not assigned to the species level but can be assigned to the Haemophilus genus level.</nciodm:CDISCDefinition>
          <nciodm:PreferredTerm>Haemophilus</nciodm:PreferredTerm>
        </EnumeratedItem>
        <EnumeratedItem CodedValue="HAFNIA ALVEI" nciodm:ExtCodeID="C86435">
          <nciodm:CDISCSynonym>ENTEROBACTER ALVEI</nciodm:CDISCSynonym>
          <nciodm:CDISCDefinition>Any bacterial organism that can be assigned to the species Hafnia alvei.</nciodm:CDISCDefinition>
          <nciodm:PreferredTerm>Hafnia alvei</nciodm:PreferredTerm>
        </EnumeratedItem>
        <EnumeratedItem CodedValue="HAFNIA" nciodm:ExtCodeID="C86434">
          <nciodm:CDISCDefinition>Any bacteria that is not assigned to the species level but can be assigned to the Hafnia genus level.</nciodm:CDISCDefinition>
          <nciodm:PreferredTerm>Hafnia</nciodm:PreferredTerm>
        </EnumeratedItem>
        <EnumeratedItem CodedValue="HALOBACILLUS" nciodm:ExtCodeID="C86436">
          <nciodm:CDISCDefinition>Any bacteria that is not assigned to the species level but can be assigned to the Halobacillus genus level.</nciodm:CDISCDefinition>
          <nciodm:PreferredTerm>Halobacillus</nciodm:PreferredTerm>
        </EnumeratedItem>
        <EnumeratedItem CodedValue="HELCOCOCCUS KUNZII" nciodm:ExtCodeID="C86878">
          <nciodm:CDISCDefinition>Any bacterial organism that can be assigned to the species Helcococcus kunzii.</nciodm:CDISCDefinition>
          <nciodm:PreferredTerm>Helcococcus kunzii</nciodm:PreferredTerm>
        </EnumeratedItem>
        <EnumeratedItem CodedValue="HELCOCOCCUS PYOGENES" nciodm:ExtCodeID="C86879">
          <nciodm:CDISCDefinition>Any bacterial organism that can be assigned to the species Helcococcus pyogenes.</nciodm:CDISCDefinition>
          <nciodm:PreferredTerm>Helcococcus pyogenes</nciodm:PreferredTerm>
        </EnumeratedItem>
        <EnumeratedItem CodedValue="HELCOCOCCUS" nciodm:ExtCodeID="C86873">
          <nciodm:CDISCDefinition>Any bacteria that is not assigned to the species level but can be assigned to the Helcococcus genus level.</nciodm:CDISCDefinition>
          <nciodm:PreferredTerm>Helcococcus</nciodm:PreferredTerm>
        </EnumeratedItem>
        <EnumeratedItem CodedValue="HELCOCOCCUS SUECIENSIS" nciodm:ExtCodeID="C86880">
          <nciodm:CDISCDefinition>Any bacterial organism that can be assigned to the species Helcococcus sueciensis.</nciodm:CDISCDefinition>
          <nciodm:PreferredTerm>Helcococcus sueciensis</nciodm:PreferredTerm>
        </EnumeratedItem>
        <EnumeratedItem CodedValue="HELICOBACTER CINAEDI" nciodm:ExtCodeID="C86437">
          <nciodm:CDISCSynonym>CAMPYLOBACTER CINAEDI</nciodm:CDISCSynonym>
          <nciodm:CDISCDefinition>Any bacterial organism that can be assigned to the species Helicobacter cinaedi.</nciodm:CDISCDefinition>
          <nciodm:PreferredTerm>Helicobacter cinaedi</nciodm:PreferredTerm>
        </EnumeratedItem>
        <EnumeratedItem CodedValue="HELICOBACTER FELIS" nciodm:ExtCodeID="C14330">
          <nciodm:CDISCSynonym>H. FELIS</nciodm:CDISCSynonym>
          <nciodm:CDISCDefinition>Any bacterial organism that can be assigned to the species Helicobacter felis.</nciodm:CDISCDefinition>
          <nciodm:PreferredTerm>Helicobacter felis</nciodm:PreferredTerm>
        </EnumeratedItem>
        <EnumeratedItem CodedValue="HELICOBACTER FENNELLIAE" nciodm:ExtCodeID="C86438">
          <nciodm:CDISCSynonym>CAMPYLOBACTER FENNELLIAE</nciodm:CDISCSynonym>
          <nciodm:CDISCDefinition>Any bacterial organism that can be assigned to the species Helicobacter fennelliae.</nciodm:CDISCDefinition>
          <nciodm:PreferredTerm>Helicobacter fennelliae</nciodm:PreferredTerm>
        </EnumeratedItem>
        <EnumeratedItem CodedValue="HELICOBACTER MUSTELAE" nciodm:ExtCodeID="C86439">
          <nciodm:CDISCSynonym>CAMPYLOBACTER MUSTELAE</nciodm:CDISCSynonym>
          <nciodm:CDISCDefinition>Any bacterial organism that can be assigned to the species Helicobacter mustelae.</nciodm:CDISCDefinition>
          <nciodm:PreferredTerm>Helicobacter mustelae</nciodm:PreferredTerm>
        </EnumeratedItem>
        <EnumeratedItem CodedValue="HELICOBACTER PYLORI" nciodm:ExtCodeID="C14289">
          <nciodm:CDISCSynonym>H. PYLORI</nciodm:CDISCSynonym>
          <nciodm:CDISCSynonym>CAMPYLOBACTER PYLORI</nciodm:CDISCSynonym>
          <nciodm:CDISCDefinition>Any bacterial organism that can be assigned to the species Helicobacter pylori.</nciodm:CDISCDefinition>
          <nciodm:PreferredTerm>Helicobacter pylori</nciodm:PreferredTerm>
        </EnumeratedItem>
        <EnumeratedItem CodedValue="HELICOBACTER RAPPINI" nciodm:ExtCodeID="C86440">
          <nciodm:CDISCSynonym>FLEXISPIRA RAPPINI</nciodm:CDISCSynonym>
          <nciodm:CDISCDefinition>Any bacterial organism that can be assigned to the species Helicobacter rappini.</nciodm:CDISCDefinition>
          <nciodm:PreferredTerm>Helicobacter rappini</nciodm:PreferredTerm>
        </EnumeratedItem>
        <EnumeratedItem CodedValue="HELICOBACTER" nciodm:ExtCodeID="C14296">
          <nciodm:CDISCDefinition>Any bacteria that is not assigned to the species level but can be assigned to the Helicobacter genus level.</nciodm:CDISCDefinition>
          <nciodm:PreferredTerm>Helicobacter</nciodm:PreferredTerm>
        </EnumeratedItem>
        <EnumeratedItem CodedValue="HISTOPHILUS SOMNI" nciodm:ExtCodeID="C86441">
          <nciodm:CDISCSynonym>HAEMOPHILUS SOMNUS</nciodm:CDISCSynonym>
          <nciodm:CDISCDefinition>Any bacterial organism that can be assigned to the species Histophilus somni.</nciodm:CDISCDefinition>
          <nciodm:PreferredTerm>Histophilus somni</nciodm:PreferredTerm>
        </EnumeratedItem>
        <EnumeratedItem CodedValue="HOLDEMANIA FILIFORMIS" nciodm:ExtCodeID="C86443">
          <nciodm:CDISCDefinition>Any bacterial organism that can be assigned to the species Holdemania filiformis.</nciodm:CDISCDefinition>
          <nciodm:PreferredTerm>Holdemania filiformis</nciodm:PreferredTerm>
        </EnumeratedItem>
        <EnumeratedItem CodedValue="HOLDEMANIA" nciodm:ExtCodeID="C86442">
          <nciodm:CDISCDefinition>Any bacteria that is not assigned to the species level but can be assigned to the Holdemania genus level.</nciodm:CDISCDefinition>
          <nciodm:PreferredTerm>Holdemania</nciodm:PreferredTerm>
        </EnumeratedItem>
        <EnumeratedItem CodedValue="INQUILINUS LIMOSUS" nciodm:ExtCodeID="C86445">
          <nciodm:CDISCDefinition>Any bacterial organism that can be assigned to the species Inquilinus limosus.</nciodm:CDISCDefinition>
          <nciodm:PreferredTerm>Inquilinus limosus</nciodm:PreferredTerm>
        </EnumeratedItem>
        <EnumeratedItem CodedValue="INQUILINUS" nciodm:ExtCodeID="C86444">
          <nciodm:CDISCDefinition>Any bacteria that is not assigned to the species level but can be assigned to the Inquilinus genus level.</nciodm:CDISCDefinition>
          <nciodm:PreferredTerm>Inquilinus</nciodm:PreferredTerm>
        </EnumeratedItem>
        <EnumeratedItem CodedValue="JEOTGALIBACILLUS" nciodm:ExtCodeID="C86446">
          <nciodm:CDISCDefinition>Any bacteria that is not assigned to the species level but can be assigned to the Jeotgalibacillus genus level.</nciodm:CDISCDefinition>
          <nciodm:PreferredTerm>Jeotgalibacillus</nciodm:PreferredTerm>
        </EnumeratedItem>
        <EnumeratedItem CodedValue="JOHNSONELLA IGNAVA" nciodm:ExtCodeID="C86448">
          <nciodm:CDISCDefinition>Any bacterial organism that can be assigned to the species Johnsonella ignava.</nciodm:CDISCDefinition>
          <nciodm:PreferredTerm>Johnsonella ignava</nciodm:PreferredTerm>
        </EnumeratedItem>
        <EnumeratedItem CodedValue="JOHNSONELLA" nciodm:ExtCodeID="C86447">
          <nciodm:CDISCDefinition>Any bacteria that is not assigned to the species level but can be assigned to the Johnsonella genus level.</nciodm:CDISCDefinition>
          <nciodm:PreferredTerm>Johnsonella</nciodm:PreferredTerm>
        </EnumeratedItem>
        <EnumeratedItem CodedValue="KINGELLA DENITRIFICANS" nciodm:ExtCodeID="C86450">
          <nciodm:CDISCSynonym>CDC GROUP TM-1</nciodm:CDISCSynonym>
          <nciodm:CDISCDefinition>Any bacterial organism that can be assigned to the species Kingella denitrificans.</nciodm:CDISCDefinition>
          <nciodm:PreferredTerm>Kingella denitrificans</nciodm:PreferredTerm>
        </EnumeratedItem>
        <EnumeratedItem CodedValue="KINGELLA KINGAE" nciodm:ExtCodeID="C86451">
          <nciodm:CDISCSynonym>MORAXELLA KINGAE</nciodm:CDISCSynonym>
          <nciodm:CDISCDefinition>Any bacterial organism that can be assigned to the species Kingella kingae.</nciodm:CDISCDefinition>
          <nciodm:PreferredTerm>Kingella kingae</nciodm:PreferredTerm>
        </EnumeratedItem>
        <EnumeratedItem CodedValue="KINGELLA ORALIS" nciodm:ExtCodeID="C86452">
          <nciodm:CDISCDefinition>Any bacterial organism that can be assigned to the species Kingella oralis.</nciodm:CDISCDefinition>
          <nciodm:PreferredTerm>Kingella oralis</nciodm:PreferredTerm>
        </EnumeratedItem>
        <EnumeratedItem CodedValue="KINGELLA POTUS" nciodm:ExtCodeID="C86453">
          <nciodm:CDISCDefinition>Any bacterial organism that can be assigned to the species Kingella potus.</nciodm:CDISCDefinition>
          <nciodm:PreferredTerm>Kingella potus</nciodm:PreferredTerm>
        </EnumeratedItem>
        <EnumeratedItem CodedValue="KINGELLA" nciodm:ExtCodeID="C86449">
          <nciodm:CDISCDefinition>Any bacteria that is not assigned to the species level but can be assigned to the Kingella genus level.</nciodm:CDISCDefinition>
          <nciodm:PreferredTerm>Kingella</nciodm:PreferredTerm>
        </EnumeratedItem>
        <EnumeratedItem CodedValue="KLEBSIELLA GRANULOMATIS" nciodm:ExtCodeID="C86454">
          <nciodm:CDISCDefinition>Any bacterial organism that can be assigned to the species Klebsiella granulomatis.</nciodm:CDISCDefinition>
          <nciodm:PreferredTerm>Klebsiella granulomatis</nciodm:PreferredTerm>
        </EnumeratedItem>
        <EnumeratedItem CodedValue="KLEBSIELLA OXYTOCA" nciodm:ExtCodeID="C86455">
          <nciodm:CDISCSynonym>K. OXYTOCA</nciodm:CDISCSynonym>
          <nciodm:CDISCDefinition>Any bacterial organism that can be assigned to the species Klebsiella oxytoca.</nciodm:CDISCDefinition>
          <nciodm:PreferredTerm>Klebsiella oxytoca</nciodm:PreferredTerm>
        </EnumeratedItem>
        <EnumeratedItem CodedValue="KLEBSIELLA PNEUMONIAE" nciodm:ExtCodeID="C86457">
          <nciodm:CDISCSynonym>K. PNEUMONIAE</nciodm:CDISCSynonym>
          <nciodm:CDISCDefinition>Any bacterial organism that can be assigned to the species Klebsiella pneumoniae.</nciodm:CDISCDefinition>
          <nciodm:PreferredTerm>Klebsiella pneumoniae</nciodm:PreferredTerm>
        </EnumeratedItem>
        <EnumeratedItem CodedValue="KLEBSIELLA OZAENAE" nciodm:ExtCodeID="C86456">
          <nciodm:CDISCSynonym>KLEBSIELLA PNEUMONIAE SUBSP. OZAENAE</nciodm:CDISCSynonym>
          <nciodm:CDISCDefinition>Any bacterial organism that can be assigned to the species Klebsiella ozaenae.</nciodm:CDISCDefinition>
          <nciodm:PreferredTerm>Klebsiella ozaenae</nciodm:PreferredTerm>
        </EnumeratedItem>
        <EnumeratedItem CodedValue="KLEBSIELLA RHINOSCLEROMATIS" nciodm:ExtCodeID="C86458">
          <nciodm:CDISCSynonym>KLEBSIELLA PNEUMONIAE SUBSP. RHINOSCLEROMATIS</nciodm:CDISCSynonym>
          <nciodm:CDISCDefinition>Any bacterial organism that can be assigned to the species Klebsiella rhinoscleromatis.</nciodm:CDISCDefinition>
          <nciodm:PreferredTerm>Klebsiella rhinoscleromatis</nciodm:PreferredTerm>
        </EnumeratedItem>
        <EnumeratedItem CodedValue="KLEBSIELLA SINGAPORENSIS" nciodm:ExtCodeID="C86459">
          <nciodm:CDISCDefinition>Any bacterial organism that can be assigned to the species Klebsiella singaporensis.</nciodm:CDISCDefinition>
          <nciodm:PreferredTerm>Klebsiella singaporensis</nciodm:PreferredTerm>
        </EnumeratedItem>
        <EnumeratedItem CodedValue="KLEBSIELLA" nciodm:ExtCodeID="C28165">
          <nciodm:CDISCDefinition>Any bacteria that is not assigned to the species level but can be assigned to the Klebsiella genus level.</nciodm:CDISCDefinition>
          <nciodm:PreferredTerm>Klebsiella</nciodm:PreferredTerm>
        </EnumeratedItem>
        <EnumeratedItem CodedValue="KLEBSIELLA VARIICOLA" nciodm:ExtCodeID="C86460">
          <nciodm:CDISCDefinition>Any bacterial organism that can be assigned to the species Klebsiella variicola.</nciodm:CDISCDefinition>
          <nciodm:PreferredTerm>Klebsiella variicola</nciodm:PreferredTerm>
        </EnumeratedItem>
        <EnumeratedItem CodedValue="KLUYVERA ASCORBATA" nciodm:ExtCodeID="C86462">
          <nciodm:CDISCSynonym>CDC ENTERIC GROUP 8</nciodm:CDISCSynonym>
          <nciodm:CDISCDefinition>Any bacterial organism that can be assigned to the species Kluyvera ascorbata.</nciodm:CDISCDefinition>
          <nciodm:PreferredTerm>Kluyvera ascorbata</nciodm:PreferredTerm>
        </EnumeratedItem>
        <EnumeratedItem CodedValue="KLUYVERA CRYOCRESCENS" nciodm:ExtCodeID="C86463">
          <nciodm:CDISCDefinition>Any bacterial organism that can be assigned to the species Kluyvera cryocrescens.</nciodm:CDISCDefinition>
          <nciodm:PreferredTerm>Kluyvera cryocrescens</nciodm:PreferredTerm>
        </EnumeratedItem>
        <EnumeratedItem CodedValue="KLUYVERA GEORGIANA" nciodm:ExtCodeID="C86464">
          <nciodm:CDISCDefinition>Any bacterial organism that can be assigned to the species Kluyvera georgiana.</nciodm:CDISCDefinition>
          <nciodm:PreferredTerm>Kluyvera georgiana</nciodm:PreferredTerm>
        </EnumeratedItem>
        <EnumeratedItem CodedValue="KLUYVERA INTERMEDIA" nciodm:ExtCodeID="C86465">
          <nciodm:CDISCSynonym>ENTEROBACTER INTERMEDIUM</nciodm:CDISCSynonym>
          <nciodm:CDISCSynonym>ENTEROBACTER INTERMEDIUS</nciodm:CDISCSynonym>
          <nciodm:CDISCSynonym>KLUYVERA COCHLEAE</nciodm:CDISCSynonym>
          <nciodm:CDISCSynonym>ENTEROBACTER INTERMEDIUM</nciodm:CDISCSynonym>
          <nciodm:CDISCDefinition>Any bacterial organism that can be assigned to the species Kluyvera intermedia.</nciodm:CDISCDefinition>
          <nciodm:PreferredTerm>Kluyvera intermedia</nciodm:PreferredTerm>
        </EnumeratedItem>
        <EnumeratedItem CodedValue="KLUYVERA" nciodm:ExtCodeID="C86461">
          <nciodm:CDISCDefinition>Any bacteria that is not assigned to the species level but can be assigned to the Kluyvera genus level.</nciodm:CDISCDefinition>
          <nciodm:PreferredTerm>Kluyvera</nciodm:PreferredTerm>
        </EnumeratedItem>
        <EnumeratedItem CodedValue="KNOELLIA" nciodm:ExtCodeID="C86466">
          <nciodm:CDISCDefinition>Any bacteria that is not assigned to the species level but can be assigned to the Knoellia genus level.</nciodm:CDISCDefinition>
          <nciodm:PreferredTerm>Knoellia</nciodm:PreferredTerm>
        </EnumeratedItem>
        <EnumeratedItem CodedValue="KOCURIA KRISTINAE" nciodm:ExtCodeID="C86468">
          <nciodm:CDISCSynonym>MICROCOCCUS KRISTINAE</nciodm:CDISCSynonym>
          <nciodm:CDISCDefinition>Any bacterial organism that can be assigned to the species Kocuria kristinae.</nciodm:CDISCDefinition>
          <nciodm:PreferredTerm>Kocuria kristinae</nciodm:PreferredTerm>
        </EnumeratedItem>
        <EnumeratedItem CodedValue="KOCURIA ROSEA" nciodm:ExtCodeID="C86469">
          <nciodm:CDISCDefinition>Any bacterial organism that can be assigned to the species Kocuria rosea.</nciodm:CDISCDefinition>
          <nciodm:PreferredTerm>Kocuria rosea</nciodm:PreferredTerm>
        </EnumeratedItem>
        <EnumeratedItem CodedValue="KOCURIA" nciodm:ExtCodeID="C86467">
          <nciodm:CDISCDefinition>Any bacteria that is not assigned to the species level but can be assigned to the Kocuria genus level.</nciodm:CDISCDefinition>
          <nciodm:PreferredTerm>Kocuria</nciodm:PreferredTerm>
        </EnumeratedItem>
        <EnumeratedItem CodedValue="KOCURIA VARIANS" nciodm:ExtCodeID="C86470">
          <nciodm:CDISCDefinition>Any bacterial organism that can be assigned to the species Kocuria varians.</nciodm:CDISCDefinition>
          <nciodm:PreferredTerm>Kocuria varians</nciodm:PreferredTerm>
        </EnumeratedItem>
        <EnumeratedItem CodedValue="KURTHIA" nciodm:ExtCodeID="C86471">
          <nciodm:CDISCDefinition>Any bacteria that is not assigned to the species level but can be assigned to the Kurthia genus level.</nciodm:CDISCDefinition>
          <nciodm:PreferredTerm>Kurthia</nciodm:PreferredTerm>
        </EnumeratedItem>
        <EnumeratedItem CodedValue="KYTOCOCCUS SEDENTARIUS" nciodm:ExtCodeID="C86473">
          <nciodm:CDISCDefinition>Any bacterial organism that can be assigned to the species Kytococcus sedentarius.</nciodm:CDISCDefinition>
          <nciodm:PreferredTerm>Kytococcus sedentarius</nciodm:PreferredTerm>
        </EnumeratedItem>
        <EnumeratedItem CodedValue="KYTOCOCCUS" nciodm:ExtCodeID="C86472">
          <nciodm:CDISCDefinition>Any bacteria that is not assigned to the species level but can be assigned to the Kytococcus genus level.</nciodm:CDISCDefinition>
          <nciodm:PreferredTerm>Kytococcus</nciodm:PreferredTerm>
        </EnumeratedItem>
        <EnumeratedItem CodedValue="LACTOBACILLUS ACIDOPHILUS" nciodm:ExtCodeID="C86474">
          <nciodm:CDISCDefinition>Any bacterial organism that can be assigned to the species Lactobacillus acidophilus.</nciodm:CDISCDefinition>
          <nciodm:PreferredTerm>Lactobacillus acidophilus</nciodm:PreferredTerm>
        </EnumeratedItem>
        <EnumeratedItem CodedValue="LACTOBACILLUS BREVIS" nciodm:ExtCodeID="C86475">
          <nciodm:CDISCDefinition>Any bacterial organism that can be assigned to the species Lactobacillus brevis.</nciodm:CDISCDefinition>
          <nciodm:PreferredTerm>Lactobacillus brevis</nciodm:PreferredTerm>
        </EnumeratedItem>
        <EnumeratedItem CodedValue="LACTOBACILLUS CASEI" nciodm:ExtCodeID="C86476">
          <nciodm:CDISCDefinition>Any bacterial organism that can be assigned to the species Lactobacillus casei.</nciodm:CDISCDefinition>
          <nciodm:PreferredTerm>Lactobacillus casei</nciodm:PreferredTerm>
        </EnumeratedItem>
        <EnumeratedItem CodedValue="LACTOBACILLUS CATENAFORMIS" nciodm:ExtCodeID="C86477">
          <nciodm:CDISCSynonym>LACTOBACILLUS CATENAFORME</nciodm:CDISCSynonym>
          <nciodm:CDISCDefinition>Any bacterial organism that can be assigned to the species Lactobacillus catenaformis.</nciodm:CDISCDefinition>
          <nciodm:PreferredTerm>Lactobacillus catenaformis</nciodm:PreferredTerm>
        </EnumeratedItem>
        <EnumeratedItem CodedValue="LACTOBACILLUS FERMENTUM" nciodm:ExtCodeID="C86478">
          <nciodm:CDISCDefinition>Any bacterial organism that can be assigned to the species Lactobacillus fermentum.</nciodm:CDISCDefinition>
          <nciodm:PreferredTerm>Lactobacillus fermentum</nciodm:PreferredTerm>
        </EnumeratedItem>
        <EnumeratedItem CodedValue="LACTOBACILLUS GALLINARUM" nciodm:ExtCodeID="C86479">
          <nciodm:CDISCDefinition>Any bacterial organism that can be assigned to the species Lactobacillus gallinarum.</nciodm:CDISCDefinition>
          <nciodm:PreferredTerm>Lactobacillus gallinarum</nciodm:PreferredTerm>
        </EnumeratedItem>
        <EnumeratedItem CodedValue="LACTOBACILLUS JENSENII" nciodm:ExtCodeID="C86480">
          <nciodm:CDISCDefinition>Any bacterial organism that can be assigned to the species Lactobacillus jensenii.</nciodm:CDISCDefinition>
          <nciodm:PreferredTerm>Lactobacillus jensenii</nciodm:PreferredTerm>
        </EnumeratedItem>
        <EnumeratedItem CodedValue="LACTOBACILLUS JOHNSONII" nciodm:ExtCodeID="C86481">
          <nciodm:CDISCDefinition>Any bacterial organism that can be assigned to the species Lactobacillus johnsonii.</nciodm:CDISCDefinition>
          <nciodm:PreferredTerm>Lactobacillus johnsonii</nciodm:PreferredTerm>
        </EnumeratedItem>
        <EnumeratedItem CodedValue="LACTOBACILLUS SALIVARIUS" nciodm:ExtCodeID="C86482">
          <nciodm:CDISCDefinition>Any bacterial organism that can be assigned to the species Lactobacillus salivarius.</nciodm:CDISCDefinition>
          <nciodm:PreferredTerm>Lactobacillus salivarius</nciodm:PreferredTerm>
        </EnumeratedItem>
        <EnumeratedItem CodedValue="LACTOBACILLUS" nciodm:ExtCodeID="C76352">
          <nciodm:CDISCDefinition>Any bacteria that is not assigned to the species level but can be assigned to the Lactobacillus genus level.</nciodm:CDISCDefinition>
          <nciodm:PreferredTerm>Lactobacillus</nciodm:PreferredTerm>
        </EnumeratedItem>
        <EnumeratedItem CodedValue="LACTOCOCCUS GARVIEAE" nciodm:ExtCodeID="C86484">
          <nciodm:CDISCDefinition>Any bacterial organism that can be assigned to the species Lactococcus garvieae.</nciodm:CDISCDefinition>
          <nciodm:PreferredTerm>Lactococcus garvieae</nciodm:PreferredTerm>
        </EnumeratedItem>
        <EnumeratedItem CodedValue="LACTOCOCCUS LACTIS" nciodm:ExtCodeID="C86485">
          <nciodm:CDISCDefinition>Any bacterial organism that can be assigned to the species Lactococcus lactis.</nciodm:CDISCDefinition>
          <nciodm:PreferredTerm>Lactococcus lactis</nciodm:PreferredTerm>
        </EnumeratedItem>
        <EnumeratedItem CodedValue="LACTOCOCCUS" nciodm:ExtCodeID="C86483">
          <nciodm:CDISCSynonym>DOEDERLEIN BACILLUS</nciodm:CDISCSynonym>
          <nciodm:CDISCDefinition>Any bacteria that is not assigned to the species level but can be assigned to the Lactococcus genus level.</nciodm:CDISCDefinition>
          <nciodm:PreferredTerm>Lactococcus</nciodm:PreferredTerm>
        </EnumeratedItem>
        <EnumeratedItem CodedValue="LECLERCIA ADECARBOXYLATA" nciodm:ExtCodeID="C86487">
          <nciodm:CDISCSynonym>CDC ENTERIC GROUP 41</nciodm:CDISCSynonym>
          <nciodm:CDISCDefinition>Any bacterial organism that can be assigned to the species Leclercia adecarboxylata.</nciodm:CDISCDefinition>
          <nciodm:PreferredTerm>Leclercia adecarboxylata</nciodm:PreferredTerm>
        </EnumeratedItem>
        <EnumeratedItem CodedValue="LECLERCIA" nciodm:ExtCodeID="C86486">
          <nciodm:CDISCDefinition>Any bacteria that is not assigned to the species level but can be assigned to the Leclercia genus level.</nciodm:CDISCDefinition>
          <nciodm:PreferredTerm>Leclercia</nciodm:PreferredTerm>
        </EnumeratedItem>
        <EnumeratedItem CodedValue="LEGIONELLA LONGBEACHAE" nciodm:ExtCodeID="C86488">
          <nciodm:CDISCDefinition>Any bacterial organism that can be assigned to the species Legionella longbeachae.</nciodm:CDISCDefinition>
          <nciodm:PreferredTerm>Legionella longbeachae</nciodm:PreferredTerm>
        </EnumeratedItem>
        <EnumeratedItem CodedValue="LEGIONELLA PNEUMOPHILA" nciodm:ExtCodeID="C86489">
          <nciodm:CDISCDefinition>Any bacterial organism that can be assigned to the species Legionella pneumophila.</nciodm:CDISCDefinition>
          <nciodm:PreferredTerm>Legionella pneumophila</nciodm:PreferredTerm>
        </EnumeratedItem>
        <EnumeratedItem CodedValue="LEGIONELLA" nciodm:ExtCodeID="C76353">
          <nciodm:CDISCDefinition>Any bacteria that is not assigned to the species level but can be assigned to the Legionella genus level.</nciodm:CDISCDefinition>
          <nciodm:PreferredTerm>Legionella</nciodm:PreferredTerm>
        </EnumeratedItem>
        <EnumeratedItem CodedValue="LEIFSONIA AQUATICA" nciodm:ExtCodeID="C86491">
          <nciodm:CDISCSynonym>CORYNEBACTERIUM AQUATICUM</nciodm:CDISCSynonym>
          <nciodm:CDISCDefinition>Any bacterial organism that can be assigned to the species Leifsonia aquatica.</nciodm:CDISCDefinition>
          <nciodm:PreferredTerm>Leifsonia aquatica</nciodm:PreferredTerm>
        </EnumeratedItem>
        <EnumeratedItem CodedValue="LEIFSONIA" nciodm:ExtCodeID="C86490">
          <nciodm:CDISCDefinition>Any bacteria that is not assigned to the species level but can be assigned to the Leifsonia genus level.</nciodm:CDISCDefinition>
          <nciodm:PreferredTerm>Leifsonia</nciodm:PreferredTerm>
        </EnumeratedItem>
        <EnumeratedItem CodedValue="LEMINORELLA GRIMONTII" nciodm:ExtCodeID="C86493">
          <nciodm:CDISCSynonym>CDC ENTERIC GROUP 57</nciodm:CDISCSynonym>
          <nciodm:CDISCDefinition>Any bacterial organism that can be assigned to the species Leminorella grimontii.</nciodm:CDISCDefinition>
          <nciodm:PreferredTerm>Leminorella grimontii</nciodm:PreferredTerm>
        </EnumeratedItem>
        <EnumeratedItem CodedValue="LEMINORELLA RICHARDII" nciodm:ExtCodeID="C86494">
          <nciodm:CDISCDefinition>Any bacterial organism that can be assigned to the species Leminorella richardii.</nciodm:CDISCDefinition>
          <nciodm:PreferredTerm>Leminorella richardii</nciodm:PreferredTerm>
        </EnumeratedItem>
        <EnumeratedItem CodedValue="LEMINORELLA" nciodm:ExtCodeID="C86492">
          <nciodm:CDISCDefinition>Any bacteria that is not assigned to the species level but can be assigned to the Leminorella genus level.</nciodm:CDISCDefinition>
          <nciodm:PreferredTerm>Leminorella</nciodm:PreferredTerm>
        </EnumeratedItem>
        <EnumeratedItem CodedValue="LEPTOSPIRA" nciodm:ExtCodeID="C76355">
          <nciodm:CDISCDefinition>Any bacteria that is not assigned to the species level but can be assigned to the Leptospira genus level.</nciodm:CDISCDefinition>
          <nciodm:PreferredTerm>Leptospira</nciodm:PreferredTerm>
        </EnumeratedItem>
        <EnumeratedItem CodedValue="LEUCONOSTOC CITREUM" nciodm:ExtCodeID="C86495">
          <nciodm:CDISCDefinition>Any bacterial organism that can be assigned to the species Leuconostoc citreum.</nciodm:CDISCDefinition>
          <nciodm:PreferredTerm>Leuconostoc citreum</nciodm:PreferredTerm>
        </EnumeratedItem>
        <EnumeratedItem CodedValue="LEUCONOSTOC LACTIS" nciodm:ExtCodeID="C86496">
          <nciodm:CDISCDefinition>Any bacterial organism that can be assigned to the species Leuconostoc lactis.</nciodm:CDISCDefinition>
          <nciodm:PreferredTerm>Leuconostoc lactis</nciodm:PreferredTerm>
        </EnumeratedItem>
        <EnumeratedItem CodedValue="LEUCONOSTOC MESENTEROIDES" nciodm:ExtCodeID="C86497">
          <nciodm:CDISCDefinition>Any bacterial organism that can be assigned to the species Leuconostoc mesenteroides.</nciodm:CDISCDefinition>
          <nciodm:PreferredTerm>Leuconostoc mesenteroides</nciodm:PreferredTerm>
        </EnumeratedItem>
        <EnumeratedItem CodedValue="LEUCONOSTOC PSEUDOMESENTEROIDES" nciodm:ExtCodeID="C86498">
          <nciodm:CDISCDefinition>Any bacterial organism that can be assigned to the species Leuconostoc pseudomesenteroides.</nciodm:CDISCDefinition>
          <nciodm:PreferredTerm>Leuconostoc pseudomesenteroides</nciodm:PreferredTerm>
        </EnumeratedItem>
        <EnumeratedItem CodedValue="LEUCONOSTOC" nciodm:ExtCodeID="C76357">
          <nciodm:CDISCDefinition>Any bacteria that is not assigned to the species level but can be assigned to the Leuconostoc genus level.</nciodm:CDISCDefinition>
          <nciodm:PreferredTerm>Leuconostoc</nciodm:PreferredTerm>
        </EnumeratedItem>
        <EnumeratedItem CodedValue="LISTERIA GRAYI" nciodm:ExtCodeID="C86499">
          <nciodm:CDISCDefinition>Any bacterial organism that can be assigned to the species Listeria grayi.</nciodm:CDISCDefinition>
          <nciodm:PreferredTerm>Listeria grayi</nciodm:PreferredTerm>
        </EnumeratedItem>
        <EnumeratedItem CodedValue="LISTERIA INNOCUA" nciodm:ExtCodeID="C86500">
          <nciodm:CDISCDefinition>Any bacterial organism that can be assigned to the species Listeria innocua.</nciodm:CDISCDefinition>
          <nciodm:PreferredTerm>Listeria innocua</nciodm:PreferredTerm>
        </EnumeratedItem>
        <EnumeratedItem CodedValue="LISTERIA IVANOVII" nciodm:ExtCodeID="C86501">
          <nciodm:CDISCSynonym>LISTERIA MONOCYTOGENES SEROVAR 5</nciodm:CDISCSynonym>
          <nciodm:CDISCDefinition>Any bacterial organism that can be assigned to the species Listeria ivanovii.</nciodm:CDISCDefinition>
          <nciodm:PreferredTerm>Listeria ivanovii</nciodm:PreferredTerm>
        </EnumeratedItem>
        <EnumeratedItem CodedValue="LISTERIA MONOCYTOGENES" nciodm:ExtCodeID="C86502">
          <nciodm:CDISCDefinition>Any bacterial organism that can be assigned to the species Listeria monocytogenes.</nciodm:CDISCDefinition>
          <nciodm:PreferredTerm>Listeria monocytogenes</nciodm:PreferredTerm>
        </EnumeratedItem>
        <EnumeratedItem CodedValue="LISTERIA SEELIGERI" nciodm:ExtCodeID="C86503">
          <nciodm:CDISCDefinition>Any bacterial organism that can be assigned to the species Listeria seeligeri.</nciodm:CDISCDefinition>
          <nciodm:PreferredTerm>Listeria seeligeri</nciodm:PreferredTerm>
        </EnumeratedItem>
        <EnumeratedItem CodedValue="LISTERIA" nciodm:ExtCodeID="C76359">
          <nciodm:CDISCDefinition>Any bacteria that is not assigned to the species level but can be assigned to the Listeria genus level.</nciodm:CDISCDefinition>
          <nciodm:PreferredTerm>Listeria</nciodm:PreferredTerm>
        </EnumeratedItem>
        <EnumeratedItem CodedValue="LISTERIA WELSHIMERI" nciodm:ExtCodeID="C86504">
          <nciodm:CDISCDefinition>Any bacterial organism that can be assigned to the species Listeria welshimeri.</nciodm:CDISCDefinition>
          <nciodm:PreferredTerm>Listeria welshimeri</nciodm:PreferredTerm>
        </EnumeratedItem>
        <EnumeratedItem CodedValue="MACROCOCCUS CASEOLYTICUS" nciodm:ExtCodeID="C86506">
          <nciodm:CDISCSynonym>STAPHYLOCOCCUS CASEOLYTICUS</nciodm:CDISCSynonym>
          <nciodm:CDISCDefinition>Any bacterial organism that can be assigned to the species Macrococcus caseolyticus.</nciodm:CDISCDefinition>
          <nciodm:PreferredTerm>Macrococcus caseolyticus</nciodm:PreferredTerm>
        </EnumeratedItem>
        <EnumeratedItem CodedValue="MACROCOCCUS" nciodm:ExtCodeID="C86505">
          <nciodm:CDISCDefinition>Any bacteria that is not assigned to the species level but can be assigned to the Macrococcus genus level.</nciodm:CDISCDefinition>
          <nciodm:PreferredTerm>Macrococcus</nciodm:PreferredTerm>
        </EnumeratedItem>
        <EnumeratedItem CodedValue="MANNHEIMIA HAEMOLYTICA" nciodm:ExtCodeID="C86508">
          <nciodm:CDISCSynonym>PASTEURELLA HAEMOLYTICA</nciodm:CDISCSynonym>
          <nciodm:CDISCDefinition>Any bacterial organism that can be assigned to the species Mannheimia haemolytica.</nciodm:CDISCDefinition>
          <nciodm:PreferredTerm>Mannheimia haemolytica</nciodm:PreferredTerm>
        </EnumeratedItem>
        <EnumeratedItem CodedValue="MANNHEIMIA" nciodm:ExtCodeID="C86507">
          <nciodm:CDISCDefinition>Any bacteria that is not assigned to the species level but can be assigned to the Mannheimia genus level.</nciodm:CDISCDefinition>
          <nciodm:PreferredTerm>Mannheimia</nciodm:PreferredTerm>
        </EnumeratedItem>
        <EnumeratedItem CodedValue="MEGASPHAERA ELSDENII" nciodm:ExtCodeID="C86896">
          <nciodm:CDISCSynonym>PEPTOSTREPTOCOCCUS ELSDENII</nciodm:CDISCSynonym>
          <nciodm:CDISCDefinition>Any bacterial organism that can be assigned to the species Megasphaera elsdenii.</nciodm:CDISCDefinition>
          <nciodm:PreferredTerm>Megasphaera elsdenii</nciodm:PreferredTerm>
        </EnumeratedItem>
        <EnumeratedItem CodedValue="MEGASPHAERA" nciodm:ExtCodeID="C86895">
          <nciodm:CDISCDefinition>Any bacteria that is not assigned to the species level but can be assigned to the Megasphaera genus level.</nciodm:CDISCDefinition>
          <nciodm:PreferredTerm>Megasphaera</nciodm:PreferredTerm>
        </EnumeratedItem>
        <EnumeratedItem CodedValue="METHYLOBACTERIUM MESOPHILICUM" nciodm:ExtCodeID="C86510">
          <nciodm:CDISCSynonym>PSEUDOMONAS MESOPHILICA</nciodm:CDISCSynonym>
          <nciodm:CDISCDefinition>Any bacterial organism that can be assigned to the species Methylobacterium mesophilicum.</nciodm:CDISCDefinition>
          <nciodm:PreferredTerm>Methylobacterium mesophilicum</nciodm:PreferredTerm>
        </EnumeratedItem>
        <EnumeratedItem CodedValue="METHYLOBACTERIUM" nciodm:ExtCodeID="C76361">
          <nciodm:CDISCDefinition>Any bacteria that is not assigned to the species level but can be assigned to the Methylobacterium genus level.</nciodm:CDISCDefinition>
          <nciodm:PreferredTerm>Methylobacterium</nciodm:PreferredTerm>
        </EnumeratedItem>
        <EnumeratedItem CodedValue="MICROBACTERIUM PARAOXYDANS" nciodm:ExtCodeID="C86512">
          <nciodm:CDISCDefinition>Any bacterial organism that can be assigned to the species Microbacterium paraoxydans.</nciodm:CDISCDefinition>
          <nciodm:PreferredTerm>Microbacterium paraoxydans</nciodm:PreferredTerm>
        </EnumeratedItem>
        <EnumeratedItem CodedValue="MICROBACTERIUM" nciodm:ExtCodeID="C85511">
          <nciodm:CDISCSynonym>CDC CORYNEFORM GROUP A-4, A-5</nciodm:CDISCSynonym>
          <nciodm:CDISCDefinition>Any bacteria that is not assigned to the species level but can be assigned to the Microbacterium genus level.</nciodm:CDISCDefinition>
          <nciodm:PreferredTerm>Microbacterium</nciodm:PreferredTerm>
        </EnumeratedItem>
        <EnumeratedItem CodedValue="MICROCOCCUS LUTEUS" nciodm:ExtCodeID="C86513">
          <nciodm:CDISCSynonym>SARCINA LUTEA</nciodm:CDISCSynonym>
          <nciodm:CDISCDefinition>Any bacterial organism that can be assigned to the species Micrococcus luteus.</nciodm:CDISCDefinition>
          <nciodm:PreferredTerm>Micrococcus luteus</nciodm:PreferredTerm>
        </EnumeratedItem>
        <EnumeratedItem CodedValue="MICROCOCCUS LYLAE" nciodm:ExtCodeID="C86514">
          <nciodm:CDISCDefinition>Any bacterial organism that can be assigned to the species Micrococcus lylae.</nciodm:CDISCDefinition>
          <nciodm:PreferredTerm>Micrococcus lylae</nciodm:PreferredTerm>
        </EnumeratedItem>
        <EnumeratedItem CodedValue="MICROCOCCUS" nciodm:ExtCodeID="C77086">
          <nciodm:CDISCDefinition>Any bacteria that is not assigned to the species level but can be assigned to the Micrococcus genus level.</nciodm:CDISCDefinition>
          <nciodm:PreferredTerm>Micrococcus</nciodm:PreferredTerm>
        </EnumeratedItem>
        <EnumeratedItem CodedValue="MITSUOKELLA MULTACIDA" nciodm:ExtCodeID="C86516">
          <nciodm:CDISCDefinition>Any bacterial organism that can be assigned to the species Mitsuokella multacida.</nciodm:CDISCDefinition>
          <nciodm:PreferredTerm>Mitsuokella multacida</nciodm:PreferredTerm>
        </EnumeratedItem>
        <EnumeratedItem CodedValue="MITSUOKELLA" nciodm:ExtCodeID="C86515">
          <nciodm:CDISCDefinition>Any bacteria that is not assigned to the species level but can be assigned to the Mitsuokella genus level.</nciodm:CDISCDefinition>
          <nciodm:PreferredTerm>Mitsuokella</nciodm:PreferredTerm>
        </EnumeratedItem>
        <EnumeratedItem CodedValue="MOBILUNCUS CURTISII" nciodm:ExtCodeID="C86518">
          <nciodm:CDISCDefinition>Any bacterial organism that can be assigned to the species Mobiluncus curtisii.</nciodm:CDISCDefinition>
          <nciodm:PreferredTerm>Mobiluncus curtisii</nciodm:PreferredTerm>
        </EnumeratedItem>
        <EnumeratedItem CodedValue="MOBILUNCUS MULIERIS" nciodm:ExtCodeID="C86519">
          <nciodm:CDISCDefinition>Any bacterial organism that can be assigned to the species Mobiluncus mulieris.</nciodm:CDISCDefinition>
          <nciodm:PreferredTerm>Mobiluncus mulieris</nciodm:PreferredTerm>
        </EnumeratedItem>
        <EnumeratedItem CodedValue="MOBILUNCUS" nciodm:ExtCodeID="C86517">
          <nciodm:CDISCDefinition>Any bacteria that is not assigned to the species level but can be assigned to the Mobiluncus genus level.</nciodm:CDISCDefinition>
          <nciodm:PreferredTerm>Mobiluncus</nciodm:PreferredTerm>
        </EnumeratedItem>
        <EnumeratedItem CodedValue="MOELLERELLA" nciodm:ExtCodeID="C86520">
          <nciodm:CDISCDefinition>Any bacteria that is not assigned to the species level but can be assigned to the Moellerella genus level.</nciodm:CDISCDefinition>
          <nciodm:PreferredTerm>Moellerella</nciodm:PreferredTerm>
        </EnumeratedItem>
        <EnumeratedItem CodedValue="MOELLERELLA WISCONSENSIS" nciodm:ExtCodeID="C86521">
          <nciodm:CDISCSynonym>CDC ENTERIC GROUP 46</nciodm:CDISCSynonym>
          <nciodm:CDISCDefinition>Any bacterial organism that can be assigned to the species Moellerella wisconsensis.</nciodm:CDISCDefinition>
          <nciodm:PreferredTerm>Moellerella wisconsensis</nciodm:PreferredTerm>
        </EnumeratedItem>
        <EnumeratedItem CodedValue="MOGIBACTERIUM" nciodm:ExtCodeID="C86898">
          <nciodm:CDISCDefinition>Any bacteria that is not assigned to the species level but can be assigned to the Mogibacterium genus level.</nciodm:CDISCDefinition>
          <nciodm:PreferredTerm>Mogibacterium</nciodm:PreferredTerm>
        </EnumeratedItem>
        <EnumeratedItem CodedValue="MOGIBACTERIUM TIMIDUM" nciodm:ExtCodeID="C86899">
          <nciodm:CDISCSynonym>EUBACTERIUM TIMIDUM</nciodm:CDISCSynonym>
          <nciodm:CDISCDefinition>Any bacterial organism that can be assigned to the species Mogibacterium timidum.</nciodm:CDISCDefinition>
          <nciodm:PreferredTerm>Mogibacterium timidum</nciodm:PreferredTerm>
        </EnumeratedItem>
        <EnumeratedItem CodedValue="MORAXELLA ATLANTAE" nciodm:ExtCodeID="C86523">
          <nciodm:CDISCSynonym>CDC GROUP M-3</nciodm:CDISCSynonym>
          <nciodm:CDISCDefinition>Any bacterial organism that can be assigned to the species Moraxella atlantae.</nciodm:CDISCDefinition>
          <nciodm:PreferredTerm>Moraxella atlantae</nciodm:PreferredTerm>
        </EnumeratedItem>
        <EnumeratedItem CodedValue="MORAXELLA BOVIS" nciodm:ExtCodeID="C86524">
          <nciodm:CDISCDefinition>Any bacterial organism that can be assigned to the species Moraxella bovis.</nciodm:CDISCDefinition>
          <nciodm:PreferredTerm>Moraxella bovis</nciodm:PreferredTerm>
        </EnumeratedItem>
        <EnumeratedItem CodedValue="MORAXELLA CANIS" nciodm:ExtCodeID="C86525">
          <nciodm:CDISCDefinition>Any bacterial organism that can be assigned to the species Moraxella canis.</nciodm:CDISCDefinition>
          <nciodm:PreferredTerm>Moraxella canis</nciodm:PreferredTerm>
        </EnumeratedItem>
        <EnumeratedItem CodedValue="MORAXELLA CATARRHALIS" nciodm:ExtCodeID="C76210">
          <nciodm:CDISCSynonym>BRANHAMELLA CATARRHALIS</nciodm:CDISCSynonym>
          <nciodm:CDISCDefinition>Any bacterial organism that can be assigned to the species Moraxella catarrhalis.</nciodm:CDISCDefinition>
          <nciodm:PreferredTerm>Moraxella catarrhalis</nciodm:PreferredTerm>
        </EnumeratedItem>
        <EnumeratedItem CodedValue="MORAXELLA LACUNATA" nciodm:ExtCodeID="C86526">
          <nciodm:CDISCSynonym>MORAXELLA LIQUEFACIENS</nciodm:CDISCSynonym>
          <nciodm:CDISCDefinition>Any bacterial organism that can be assigned to the species Moraxella lacunata.</nciodm:CDISCDefinition>
          <nciodm:PreferredTerm>Moraxella lacunata</nciodm:PreferredTerm>
        </EnumeratedItem>
        <EnumeratedItem CodedValue="MORAXELLA LINCOLNII" nciodm:ExtCodeID="C86527">
          <nciodm:CDISCDefinition>Any bacterial organism that can be assigned to the species Moraxella lincolnii.</nciodm:CDISCDefinition>
          <nciodm:PreferredTerm>Moraxella lincolnii</nciodm:PreferredTerm>
        </EnumeratedItem>
        <EnumeratedItem CodedValue="MORAXELLA NONLIQUEFACIENS" nciodm:ExtCodeID="C86528">
          <nciodm:CDISCDefinition>Any bacterial organism that can be assigned to the species Moraxella nonliquefaciens.</nciodm:CDISCDefinition>
          <nciodm:PreferredTerm>Moraxella nonliquefaciens</nciodm:PreferredTerm>
        </EnumeratedItem>
        <EnumeratedItem CodedValue="MORAXELLA OBLONGA" nciodm:ExtCodeID="C86529">
          <nciodm:CDISCDefinition>Any bacterial organism that can be assigned to the species Moraxella oblonga.</nciodm:CDISCDefinition>
          <nciodm:PreferredTerm>Moraxella oblonga</nciodm:PreferredTerm>
        </EnumeratedItem>
        <EnumeratedItem CodedValue="MORAXELLA OSLOENSIS" nciodm:ExtCodeID="C86530">
          <nciodm:CDISCDefinition>Any bacterial organism that can be assigned to the species Moraxella osloensis.</nciodm:CDISCDefinition>
          <nciodm:PreferredTerm>Moraxella osloensis</nciodm:PreferredTerm>
        </EnumeratedItem>
        <EnumeratedItem CodedValue="MORAXELLA" nciodm:ExtCodeID="C86009">
          <nciodm:CDISCSynonym>BRANHAMELLA SPECIES</nciodm:CDISCSynonym>
          <nciodm:CDISCDefinition>Any bacteria that is not assigned to the species level but can be assigned to the Moraxella genus level.</nciodm:CDISCDefinition>
          <nciodm:PreferredTerm>Moraxella</nciodm:PreferredTerm>
        </EnumeratedItem>
        <EnumeratedItem CodedValue="MORGANELLA MORGANII" nciodm:ExtCodeID="C86015">
          <nciodm:CDISCSynonym>PROTEUS MORGANII</nciodm:CDISCSynonym>
          <nciodm:CDISCDefinition>Any bacterial organism that can be assigned to the species Morganella morganii.</nciodm:CDISCDefinition>
          <nciodm:PreferredTerm>Morganella morganii</nciodm:PreferredTerm>
        </EnumeratedItem>
        <EnumeratedItem CodedValue="MORGANELLA" nciodm:ExtCodeID="C86531">
          <nciodm:CDISCDefinition>Any bacteria that is not assigned to the species level but can be assigned to the Morganella genus level.</nciodm:CDISCDefinition>
          <nciodm:PreferredTerm>Morganella</nciodm:PreferredTerm>
        </EnumeratedItem>
        <EnumeratedItem CodedValue="MYCOBACTERIUM ABSCESSUS" nciodm:ExtCodeID="C86533">
          <nciodm:CDISCSynonym>MYCOBACTERIUM CHELONAE SUBSP. ABSCESSUS</nciodm:CDISCSynonym>
          <nciodm:CDISCDefinition>Any bacterial organism that can be assigned to the species Mycobacterium abscessus.</nciodm:CDISCDefinition>
          <nciodm:PreferredTerm>Mycobacterium abscessus</nciodm:PreferredTerm>
        </EnumeratedItem>
        <EnumeratedItem CodedValue="MYCOBACTERIUM AFRICANUM" nciodm:ExtCodeID="C85544">
          <nciodm:CDISCDefinition>Any bacterial organism that can be assigned to the species Mycobacterium africanum.</nciodm:CDISCDefinition>
          <nciodm:PreferredTerm>Mycobacterium africanum</nciodm:PreferredTerm>
        </EnumeratedItem>
        <EnumeratedItem CodedValue="MYCOBACTERIUM AVIUM" nciodm:ExtCodeID="C86535">
          <nciodm:CDISCDefinition>Any bacterial organism that can be assigned to the species Mycobacterium avium.</nciodm:CDISCDefinition>
          <nciodm:PreferredTerm>Mycobacterium avium</nciodm:PreferredTerm>
        </EnumeratedItem>
        <EnumeratedItem CodedValue="MYCOBACTERIUM AVIUM COMPLEX" nciodm:ExtCodeID="C76368">
          <nciodm:CDISCDefinition>A non-taxonomic grouping of bacteria assigned to and including at least three related subspecies from the Mycobacterium avium species.</nciodm:CDISCDefinition>
          <nciodm:PreferredTerm>Mycobacterium avium complex</nciodm:PreferredTerm>
        </EnumeratedItem>
        <EnumeratedItem CodedValue="MYCOBACTERIUM CHELONAE" nciodm:ExtCodeID="C86536">
          <nciodm:CDISCSynonym>MYCOBACTERIUM CHELONAE SUBSP. CHELONAE</nciodm:CDISCSynonym>
          <nciodm:CDISCDefinition>Any bacterial organism that can be assigned to the species Mycobacterium chelonae.</nciodm:CDISCDefinition>
          <nciodm:PreferredTerm>Mycobacterium chelonae</nciodm:PreferredTerm>
        </EnumeratedItem>
        <EnumeratedItem CodedValue="MYCOBACTERIUM FLAVESCENS" nciodm:ExtCodeID="C86537">
          <nciodm:CDISCDefinition>Any bacterial organism that can be assigned to the species Mycobacterium flavescens.</nciodm:CDISCDefinition>
          <nciodm:PreferredTerm>Mycobacterium flavescens</nciodm:PreferredTerm>
        </EnumeratedItem>
        <EnumeratedItem CodedValue="MYCOBACTERIUM FORTUITUM" nciodm:ExtCodeID="C86538">
          <nciodm:CDISCDefinition>Any bacterial organism that can be assigned to the species Mycobacterium fortuitum.</nciodm:CDISCDefinition>
          <nciodm:PreferredTerm>Mycobacterium fortuitum</nciodm:PreferredTerm>
        </EnumeratedItem>
        <EnumeratedItem CodedValue="MYCOBACTERIUM FORTUITUM COMPLEX" nciodm:ExtCodeID="C86539">
          <nciodm:CDISCDefinition>A non-taxonomic grouping of bacteria assigned to and including related species from the Mycobacterium genus.</nciodm:CDISCDefinition>
          <nciodm:PreferredTerm>Mycobacterium fortuitum Complex</nciodm:PreferredTerm>
        </EnumeratedItem>
        <EnumeratedItem CodedValue="MYCOBACTERIUM GASTRI" nciodm:ExtCodeID="C86540">
          <nciodm:CDISCDefinition>Any bacterial organism that can be assigned to the species Mycobacterium gastri.</nciodm:CDISCDefinition>
          <nciodm:PreferredTerm>Mycobacterium gastri</nciodm:PreferredTerm>
        </EnumeratedItem>
        <EnumeratedItem CodedValue="MYCOBACTERIUM GORDONAE" nciodm:ExtCodeID="C86541">
          <nciodm:CDISCSynonym>MYCOBACTERIUM AQUAE</nciodm:CDISCSynonym>
          <nciodm:CDISCDefinition>Any bacterial organism that can be assigned to the species Mycobacterium gordonae.</nciodm:CDISCDefinition>
          <nciodm:PreferredTerm>Mycobacterium gordonae</nciodm:PreferredTerm>
        </EnumeratedItem>
        <EnumeratedItem CodedValue="MYCOBACTERIUM HAEMOPHILUM" nciodm:ExtCodeID="C86542">
          <nciodm:CDISCDefinition>Any bacterial organism that can be assigned to the species Mycobacterium haemophilum.</nciodm:CDISCDefinition>
          <nciodm:PreferredTerm>Mycobacterium haemophilum</nciodm:PreferredTerm>
        </EnumeratedItem>
        <EnumeratedItem CodedValue="MYCOBACTERIUM KANSASII" nciodm:ExtCodeID="C85543">
          <nciodm:CDISCDefinition>Any bacterial organism that can be assigned to the species Mycobacterium kansasii.</nciodm:CDISCDefinition>
          <nciodm:PreferredTerm>Mycobacterium kansasii</nciodm:PreferredTerm>
        </EnumeratedItem>
        <EnumeratedItem CodedValue="MYCOBACTERIUM LEPRAE" nciodm:ExtCodeID="C86544">
          <nciodm:CDISCDefinition>Any bacterial organism that can be assigned to the species Mycobacterium leprae.</nciodm:CDISCDefinition>
          <nciodm:PreferredTerm>Mycobacterium leprae</nciodm:PreferredTerm>
        </EnumeratedItem>
        <EnumeratedItem CodedValue="MYCOBACTERIUM MARINUM" nciodm:ExtCodeID="C86545">
          <nciodm:CDISCSynonym>MYCOBACTERIUM BALNEI</nciodm:CDISCSynonym>
          <nciodm:CDISCDefinition>Any bacterial organism that can be assigned to the species Mycobacterium marinum.</nciodm:CDISCDefinition>
          <nciodm:PreferredTerm>Mycobacterium marinum</nciodm:PreferredTerm>
        </EnumeratedItem>
        <EnumeratedItem CodedValue="MYCOBACTERIUM PEREGRINUM" nciodm:ExtCodeID="C86546">
          <nciodm:CDISCDefinition>Any bacterial organism that can be assigned to the species Mycobacterium peregrinum.</nciodm:CDISCDefinition>
          <nciodm:PreferredTerm>Mycobacterium peregrinum</nciodm:PreferredTerm>
        </EnumeratedItem>
        <EnumeratedItem CodedValue="MYCOBACTERIUM SCROFULACEUM" nciodm:ExtCodeID="C86547">
          <nciodm:CDISCDefinition>Any bacterial organism that can be assigned to the species Mycobacterium scrofulaceum.</nciodm:CDISCDefinition>
          <nciodm:PreferredTerm>Mycobacterium scrofulaceum</nciodm:PreferredTerm>
        </EnumeratedItem>
        <EnumeratedItem CodedValue="MYCOBACTERIUM SIMIAE" nciodm:ExtCodeID="C86548">
          <nciodm:CDISCSynonym>MYCOBACTERIUM HABANA</nciodm:CDISCSynonym>
          <nciodm:CDISCDefinition>Any bacterial organism that can be assigned to the species Mycobacterium simiae.</nciodm:CDISCDefinition>
          <nciodm:PreferredTerm>Mycobacterium simiae</nciodm:PreferredTerm>
        </EnumeratedItem>
        <EnumeratedItem CodedValue="MYCOBACTERIUM SMEGMATIS" nciodm:ExtCodeID="C86590">
          <nciodm:CDISCDefinition>Any bacterial organism that can be assigned to the species Mycobacterium smegmatis.</nciodm:CDISCDefinition>
          <nciodm:PreferredTerm>Mycobacterium smegmatis</nciodm:PreferredTerm>
        </EnumeratedItem>
        <EnumeratedItem CodedValue="MYCOBACTERIUM" nciodm:ExtCodeID="C76369">
          <nciodm:CDISCDefinition>Any bacteria that is not assigned to the species level but can be assigned to the Mycobacterium genus level.</nciodm:CDISCDefinition>
          <nciodm:PreferredTerm>Mycobacterium</nciodm:PreferredTerm>
        </EnumeratedItem>
        <EnumeratedItem CodedValue="MYCOBACTERIUM SZULGAI" nciodm:ExtCodeID="C86591">
          <nciodm:CDISCDefinition>Any bacterial organism that can be assigned to the species Mycobacterium szulgai.</nciodm:CDISCDefinition>
          <nciodm:PreferredTerm>Mycobacterium szulgai</nciodm:PreferredTerm>
        </EnumeratedItem>
        <EnumeratedItem CodedValue="MYCOBACTERIUM TERRAE" nciodm:ExtCodeID="C86592">
          <nciodm:CDISCDefinition>Any bacterial organism that can be assigned to the species Mycobacterium terrae.</nciodm:CDISCDefinition>
          <nciodm:PreferredTerm>Mycobacterium terrae</nciodm:PreferredTerm>
        </EnumeratedItem>
        <EnumeratedItem CodedValue="MYCOBACTERIUM THERMORESISTIBILE" nciodm:ExtCodeID="C86593">
          <nciodm:CDISCDefinition>Any bacterial organism that can be assigned to the species Mycobacterium thermoresistibile.</nciodm:CDISCDefinition>
          <nciodm:PreferredTerm>Mycobacterium thermoresistibile</nciodm:PreferredTerm>
        </EnumeratedItem>
        <EnumeratedItem CodedValue="MYCOBACTERIUM TUBERCULOSIS" nciodm:ExtCodeID="C76370">
          <nciodm:CDISCDefinition>Any bacterial organism that can be assigned to the species Mycobacterium tuberculosis.</nciodm:CDISCDefinition>
          <nciodm:PreferredTerm>Mycobacterium tuberculosis</nciodm:PreferredTerm>
        </EnumeratedItem>
        <EnumeratedItem CodedValue="MYCOBACTERIUM TUBERCULOSIS COMPLEX" nciodm:ExtCodeID="C86594">
          <nciodm:CDISCDefinition>A non-taxonomic grouping of bacteria assigned to and including related species from the Mycobacterium genus.</nciodm:CDISCDefinition>
          <nciodm:PreferredTerm>Mycobacterium tuberculosis Complex</nciodm:PreferredTerm>
        </EnumeratedItem>
        <EnumeratedItem CodedValue="MYCOBACTERIUM ULCERANS" nciodm:ExtCodeID="C86595">
          <nciodm:CDISCSynonym>MYCOBACTERIUM BURULI</nciodm:CDISCSynonym>
          <nciodm:CDISCDefinition>Any bacterial organism that can be assigned to the species Mycobacterium ulcerans.</nciodm:CDISCDefinition>
          <nciodm:PreferredTerm>Mycobacterium ulcerans</nciodm:PreferredTerm>
        </EnumeratedItem>
        <EnumeratedItem CodedValue="MYCOPLASMA HOMINIS" nciodm:ExtCodeID="C86597">
          <nciodm:CDISCDefinition>Any bacterial organism that can be assigned to the species Mycoplasma hominis.</nciodm:CDISCDefinition>
          <nciodm:PreferredTerm>Mycoplasma hominis</nciodm:PreferredTerm>
        </EnumeratedItem>
        <EnumeratedItem CodedValue="MYCOPLASMA ORALE" nciodm:ExtCodeID="C86598">
          <nciodm:CDISCDefinition>Any bacterial organism that can be assigned to the species Mycoplasma orale.</nciodm:CDISCDefinition>
          <nciodm:PreferredTerm>Mycoplasma orale</nciodm:PreferredTerm>
        </EnumeratedItem>
        <EnumeratedItem CodedValue="MYCOPLASMA PNEUMONIAE" nciodm:ExtCodeID="C86599">
          <nciodm:CDISCDefinition>Any bacterial organism that can be assigned to the species Mycoplasma pneumoniae.</nciodm:CDISCDefinition>
          <nciodm:PreferredTerm>Mycoplasma pneumoniae</nciodm:PreferredTerm>
        </EnumeratedItem>
        <EnumeratedItem CodedValue="MYCOPLASMA" nciodm:ExtCodeID="C73540">
          <nciodm:CDISCDefinition>Any bacteria that is not assigned to the species level but can be assigned to the Mycoplasma genus level.</nciodm:CDISCDefinition>
          <nciodm:PreferredTerm>Mycoplasma</nciodm:PreferredTerm>
        </EnumeratedItem>
        <EnumeratedItem CodedValue="MYROIDES ODORATUS" nciodm:ExtCodeID="C86954">
          <nciodm:CDISCSynonym>FLAVOBACTERIUM ODORATUM</nciodm:CDISCSynonym>
          <nciodm:CDISCDefinition>Any bacterial organism that can be assigned to the species Myroides odoratus.</nciodm:CDISCDefinition>
          <nciodm:PreferredTerm>Myroides odoratus</nciodm:PreferredTerm>
        </EnumeratedItem>
        <EnumeratedItem CodedValue="MYROIDES" nciodm:ExtCodeID="C86953">
