<CodeList xmlns="http://www.cdisc.org/ns/odm/v1.3" xmlns:nciodm="http://ncicb.nci.nih.gov/xml/odm/EVS/CDISC" xmlns:xs="http://www.w3.org/2001/XMLSchema-instance" OID="CL.C67154.LBTEST" Name="Laboratory Test Name" DataType="text" nciodm:ExtCodeID="C67154" nciodm:CodeListExtensible="Yes">
        <Description>
          <TranslatedText xml:lang="en">Terminology used for Laboratory Tests of the CDISC Standard Data Tabulation Model.</TranslatedText>
        </Description>
        <EnumeratedItem CodedValue="Anisocytes" nciodm:ExtCodeID="C74797">
          <nciodm:CDISCSynonym>Anisocytes</nciodm:CDISCSynonym>
          <nciodm:CDISCDefinition>A measurement of the inequality in the size of the red blood cells in a whole blood specimen.</nciodm:CDISCDefinition>
          <nciodm:PreferredTerm>Anisocyte Measurement</nciodm:PreferredTerm>
        </EnumeratedItem>
        <EnumeratedItem CodedValue="Poikilocytes" nciodm:ExtCodeID="C79602">
          <nciodm:CDISCSynonym>Poikilocytes</nciodm:CDISCSynonym>
          <nciodm:CDISCDefinition>A measurement of the odd-shaped erythrocytes in a whole blood specimen.</nciodm:CDISCDefinition>
          <nciodm:PreferredTerm>Poikilocyte Measurement</nciodm:PreferredTerm>
        </EnumeratedItem>
        <EnumeratedItem CodedValue="Bilirubin" nciodm:ExtCodeID="C38037">
          <nciodm:CDISCSynonym>Bilirubin</nciodm:CDISCSynonym>
          <nciodm:CDISCSynonym>Total Bilirubin</nciodm:CDISCSynonym>
          <nciodm:CDISCDefinition>A measurement of the total bilirubin in a biological specimen.</nciodm:CDISCDefinition>
          <nciodm:PreferredTerm>Total Bilirubin Measurement</nciodm:PreferredTerm>
        </EnumeratedItem>
        <EnumeratedItem CodedValue="Activated Partial Thromboplastin Time" nciodm:ExtCodeID="C38462">
          <nciodm:CDISCSynonym>Activated Partial Thromboplastin Time</nciodm:CDISCSynonym>
          <nciodm:CDISCDefinition>A measurement of the length of time that it takes for clotting to occur when reagents are added to a plasma specimen. The test is partial due to the absence of tissue factor (Factor III) from the reaction mixture.</nciodm:CDISCDefinition>
          <nciodm:PreferredTerm>Partial Thromboplastin Time</nciodm:PreferredTerm>
        </EnumeratedItem>
        <EnumeratedItem CodedValue="Glucose" nciodm:ExtCodeID="C41376">
          <nciodm:CDISCSynonym>Glucose</nciodm:CDISCSynonym>
          <nciodm:CDISCDefinition>A measurement of the glucose in a biological specimen.</nciodm:CDISCDefinition>
          <nciodm:PreferredTerm>Plasma Glucose Measurement</nciodm:PreferredTerm>
        </EnumeratedItem>
        <EnumeratedItem CodedValue="pH" nciodm:ExtCodeID="C45997">
          <nciodm:CDISCSynonym>pH</nciodm:CDISCSynonym>
          <nciodm:CDISCDefinition>A measure of the acidity or alkalinity of a fluid on a scale of 0 to 14.</nciodm:CDISCDefinition>
          <nciodm:PreferredTerm>pH</nciodm:PreferredTerm>
        </EnumeratedItem>
        <EnumeratedItem CodedValue="Erythrocytes" nciodm:ExtCodeID="C51946">
          <nciodm:CDISCSynonym>Erythrocytes</nciodm:CDISCSynonym>
          <nciodm:CDISCSynonym>Red Blood Cells</nciodm:CDISCSynonym>
          <nciodm:CDISCDefinition>A measurement of the total erythrocytes in a biological specimen.</nciodm:CDISCDefinition>
          <nciodm:PreferredTerm>Erythrocyte Count</nciodm:PreferredTerm>
        </EnumeratedItem>
        <EnumeratedItem CodedValue="Reticulocytes" nciodm:ExtCodeID="C51947">
          <nciodm:CDISCSynonym>Reticulocytes</nciodm:CDISCSynonym>
          <nciodm:CDISCDefinition>A measurement of the reticulocytes in a biological specimen.</nciodm:CDISCDefinition>
          <nciodm:PreferredTerm>Reticulocyte Count</nciodm:PreferredTerm>
        </EnumeratedItem>
        <EnumeratedItem CodedValue="Leukocytes" nciodm:ExtCodeID="C51948">
          <nciodm:CDISCSynonym>Leukocytes</nciodm:CDISCSynonym>
          <nciodm:CDISCSynonym>White Blood Cells</nciodm:CDISCSynonym>
          <nciodm:CDISCDefinition>A measurement of the leukocytes in a biological specimen.</nciodm:CDISCDefinition>
          <nciodm:PreferredTerm>Leukocyte Count</nciodm:PreferredTerm>
        </EnumeratedItem>
        <EnumeratedItem CodedValue="Lymphocytes" nciodm:ExtCodeID="C51949">
          <nciodm:CDISCSynonym>Lymphocytes</nciodm:CDISCSynonym>
          <nciodm:CDISCDefinition>A measurement of the lymphocytes in a biological specimen.</nciodm:CDISCDefinition>
          <nciodm:PreferredTerm>Lymphocyte Count</nciodm:PreferredTerm>
        </EnumeratedItem>
        <EnumeratedItem CodedValue="Platelets" nciodm:ExtCodeID="C51951">
          <nciodm:CDISCSynonym>Platelets</nciodm:CDISCSynonym>
          <nciodm:CDISCDefinition>A measurement of the platelets in a biological specimen.</nciodm:CDISCDefinition>
          <nciodm:PreferredTerm>Platelet Count</nciodm:PreferredTerm>
        </EnumeratedItem>
        <EnumeratedItem CodedValue="Blood Urea Nitrogen" nciodm:ExtCodeID="C61019">
          <nciodm:CDISCSynonym>Blood Urea Nitrogen</nciodm:CDISCSynonym>
          <nciodm:CDISCDefinition>A measurement of the urea nitrogen in a blood specimen.</nciodm:CDISCDefinition>
          <nciodm:PreferredTerm>Blood Urea Nitrogen Measurement</nciodm:PreferredTerm>
        </EnumeratedItem>
        <EnumeratedItem CodedValue="Cholesterol" nciodm:ExtCodeID="C61032">
          <nciodm:CDISCSynonym>Cholesterol</nciodm:CDISCSynonym>
          <nciodm:CDISCSynonym>Total Cholesterol</nciodm:CDISCSynonym>
          <nciodm:CDISCDefinition>A measurement of the cholesterol in a biological specimen.</nciodm:CDISCDefinition>
          <nciodm:PreferredTerm>Serum Total Cholesterol Measurement</nciodm:PreferredTerm>
        </EnumeratedItem>
        <EnumeratedItem CodedValue="HDL Cholesterol" nciodm:ExtCodeID="C61041">
          <nciodm:CDISCSynonym>HDL Cholesterol</nciodm:CDISCSynonym>
          <nciodm:CDISCDefinition>A measurement of the high density lipoprotein cholesterol in a biological specimen.</nciodm:CDISCDefinition>
          <nciodm:PreferredTerm>Serum HDL Cholesterol Measurement</nciodm:PreferredTerm>
        </EnumeratedItem>
        <EnumeratedItem CodedValue="LDL Cholesterol" nciodm:ExtCodeID="C61042">
          <nciodm:CDISCSynonym>LDL Cholesterol</nciodm:CDISCSynonym>
          <nciodm:CDISCDefinition>A measurement of the low density lipoprotein cholesterol in a biological specimen.</nciodm:CDISCDefinition>
          <nciodm:PreferredTerm>Serum LDL Cholesterol Measurement</nciodm:PreferredTerm>
        </EnumeratedItem>
        <EnumeratedItem CodedValue="Prothrombin Time" nciodm:ExtCodeID="C62656">
          <nciodm:CDISCSynonym>Prothrombin Time</nciodm:CDISCSynonym>
          <nciodm:CDISCDefinition>A blood clotting measurement that evaluates the extrinsic pathway of coagulation.</nciodm:CDISCDefinition>
          <nciodm:PreferredTerm>Prothrombin Time</nciodm:PreferredTerm>
        </EnumeratedItem>
        <EnumeratedItem CodedValue="Neutrophils" nciodm:ExtCodeID="C63321">
          <nciodm:CDISCSynonym>Neutrophils</nciodm:CDISCSynonym>
          <nciodm:CDISCDefinition>A measurement of the neutrophils in a biological specimen.</nciodm:CDISCDefinition>
          <nciodm:PreferredTerm>Absolute Neutrophil Count</nciodm:PreferredTerm>
        </EnumeratedItem>
        <EnumeratedItem CodedValue="Albumin" nciodm:ExtCodeID="C64431">
          <nciodm:CDISCSynonym>Albumin</nciodm:CDISCSynonym>
          <nciodm:CDISCSynonym>Microalbumin</nciodm:CDISCSynonym>
          <nciodm:CDISCDefinition>A measurement of the albumin protein in a biological specimen.</nciodm:CDISCDefinition>
          <nciodm:PreferredTerm>Albumin Measurement</nciodm:PreferredTerm>
        </EnumeratedItem>
        <EnumeratedItem CodedValue="Alkaline Phosphatase" nciodm:ExtCodeID="C64432">
          <nciodm:CDISCSynonym>Alkaline Phosphatase</nciodm:CDISCSynonym>
          <nciodm:CDISCDefinition>A measurement of the alkaline phosphatase in a biological specimen.</nciodm:CDISCDefinition>
          <nciodm:PreferredTerm>Alkaline Phosphatase Measurement</nciodm:PreferredTerm>
        </EnumeratedItem>
        <EnumeratedItem CodedValue="Alanine Aminotransferase" nciodm:ExtCodeID="C64433">
          <nciodm:CDISCSynonym>Alanine Aminotransferase</nciodm:CDISCSynonym>
          <nciodm:CDISCSynonym>SGPT</nciodm:CDISCSynonym>
          <nciodm:CDISCDefinition>A measurement of the alanine aminotransferase in a biological specimen.</nciodm:CDISCDefinition>
          <nciodm:PreferredTerm>Alanine Aminotransferase Measurement</nciodm:PreferredTerm>
        </EnumeratedItem>
        <EnumeratedItem CodedValue="Amylase" nciodm:ExtCodeID="C64434">
          <nciodm:CDISCSynonym>Amylase</nciodm:CDISCSynonym>
          <nciodm:CDISCDefinition>A measurement of the pancreatic enzyme amylase in a biological specimen.</nciodm:CDISCDefinition>
          <nciodm:PreferredTerm>Amylase Measurement</nciodm:PreferredTerm>
        </EnumeratedItem>
        <EnumeratedItem CodedValue="Aspartate Aminotransferase" nciodm:ExtCodeID="C64467">
          <nciodm:CDISCSynonym>Aspartate Aminotransferase</nciodm:CDISCSynonym>
          <nciodm:CDISCSynonym>SGOT</nciodm:CDISCSynonym>
          <nciodm:CDISCDefinition>A measurement of the aspartate aminotransferase in a biological specimen.</nciodm:CDISCDefinition>
          <nciodm:PreferredTerm>Aspartate Aminotransferase Measurement</nciodm:PreferredTerm>
        </EnumeratedItem>
        <EnumeratedItem CodedValue="Bacteria" nciodm:ExtCodeID="C64469">
          <nciodm:CDISCSynonym>Bacteria</nciodm:CDISCSynonym>
          <nciodm:CDISCDefinition>A measurement of the bacteria in a biological specimen.</nciodm:CDISCDefinition>
          <nciodm:PreferredTerm>Bacterial Count</nciodm:PreferredTerm>
        </EnumeratedItem>
        <EnumeratedItem CodedValue="Basophils" nciodm:ExtCodeID="C64470">
          <nciodm:CDISCSynonym>Basophils</nciodm:CDISCSynonym>
          <nciodm:CDISCDefinition>A measurement of the basophils in a biological specimen.</nciodm:CDISCDefinition>
          <nciodm:PreferredTerm>Total Basophil Count</nciodm:PreferredTerm>
        </EnumeratedItem>
        <EnumeratedItem CodedValue="Basophils/Leukocytes" nciodm:ExtCodeID="C64471">
          <nciodm:CDISCSynonym>Basophils/Leukocytes</nciodm:CDISCSynonym>
          <nciodm:CDISCDefinition>A relative measurement (ratio or percentage) of the basophils to leukocytes in a biological specimen.</nciodm:CDISCDefinition>
          <nciodm:PreferredTerm>Basophil To Leukocyte Ratio</nciodm:PreferredTerm>
        </EnumeratedItem>
        <EnumeratedItem CodedValue="Direct Bilirubin" nciodm:ExtCodeID="C64481">
          <nciodm:CDISCSynonym>Direct Bilirubin</nciodm:CDISCSynonym>
          <nciodm:CDISCDefinition>A measurement of the conjugated or water-soluble bilirubin in a biological specimen.</nciodm:CDISCDefinition>
          <nciodm:PreferredTerm>Direct Bilirubin Measurement</nciodm:PreferredTerm>
        </EnumeratedItem>
        <EnumeratedItem CodedValue="Indirect Bilirubin" nciodm:ExtCodeID="C64483">
          <nciodm:CDISCSynonym>Indirect Bilirubin</nciodm:CDISCSynonym>
          <nciodm:CDISCDefinition>A measurement of the unconjugated or non-water-soluble bilirubin in a biological specimen.</nciodm:CDISCDefinition>
          <nciodm:PreferredTerm>Indirect Bilirubin Measurement</nciodm:PreferredTerm>
        </EnumeratedItem>
        <EnumeratedItem CodedValue="Blasts/Leukocytes" nciodm:ExtCodeID="C64487">
          <nciodm:CDISCSynonym>Blasts/Leukocytes</nciodm:CDISCSynonym>
          <nciodm:CDISCDefinition>A relative measurement (ratio or percentage) of the blasts to leukocytes in a biological specimen.</nciodm:CDISCDefinition>
          <nciodm:PreferredTerm>Blast To Leukocyte Ratio</nciodm:PreferredTerm>
        </EnumeratedItem>
        <EnumeratedItem CodedValue="Calcium" nciodm:ExtCodeID="C64488">
          <nciodm:CDISCSynonym>Calcium</nciodm:CDISCSynonym>
          <nciodm:CDISCDefinition>A measurement of the calcium in a biological specimen.</nciodm:CDISCDefinition>
          <nciodm:PreferredTerm>Calcium Measurement</nciodm:PreferredTerm>
        </EnumeratedItem>
        <EnumeratedItem CodedValue="Creatine Kinase" nciodm:ExtCodeID="C64489">
          <nciodm:CDISCSynonym>Creatine Kinase</nciodm:CDISCSynonym>
          <nciodm:CDISCDefinition>A measurement of the total creatine kinase in a biological specimen.</nciodm:CDISCDefinition>
          <nciodm:PreferredTerm>Creatine Kinase Measurement</nciodm:PreferredTerm>
        </EnumeratedItem>
        <EnumeratedItem CodedValue="Creatine Kinase BB" nciodm:ExtCodeID="C64490">
          <nciodm:CDISCSynonym>Creatine Kinase BB</nciodm:CDISCSynonym>
          <nciodm:CDISCDefinition>A measurement of the homozygous B-type creatine kinase in a biological specimen.</nciodm:CDISCDefinition>
          <nciodm:PreferredTerm>Creatine Kinase BB Measurement</nciodm:PreferredTerm>
        </EnumeratedItem>
        <EnumeratedItem CodedValue="Creatine Kinase MB" nciodm:ExtCodeID="C64491">
          <nciodm:CDISCSynonym>Creatine Kinase MB</nciodm:CDISCSynonym>
          <nciodm:CDISCDefinition>A measurement of the heterozygous MB-type creatine kinase in a biological specimen.</nciodm:CDISCDefinition>
          <nciodm:PreferredTerm>Creatine Kinase MB Measurement</nciodm:PreferredTerm>
        </EnumeratedItem>
        <EnumeratedItem CodedValue="Creatine Kinase MM" nciodm:ExtCodeID="C64494">
          <nciodm:CDISCSynonym>Creatine Kinase MM</nciodm:CDISCSynonym>
          <nciodm:CDISCDefinition>A measurement of the homozygous M-type creatine kinase in a biological specimen.</nciodm:CDISCDefinition>
          <nciodm:PreferredTerm>Creatine Kinase MM Measurement</nciodm:PreferredTerm>
        </EnumeratedItem>
        <EnumeratedItem CodedValue="Chloride" nciodm:ExtCodeID="C64495">
          <nciodm:CDISCSynonym>Chloride</nciodm:CDISCSynonym>
          <nciodm:CDISCDefinition>A measurement of the chloride in a biological specimen.</nciodm:CDISCDefinition>
          <nciodm:PreferredTerm>Chloride Measurement</nciodm:PreferredTerm>
        </EnumeratedItem>
        <EnumeratedItem CodedValue="Carbon Dioxide" nciodm:ExtCodeID="C64545">
          <nciodm:CDISCSynonym>Carbon Dioxide</nciodm:CDISCSynonym>
          <nciodm:CDISCDefinition>A measurement of the carbon dioxide gas in a biological specimen.</nciodm:CDISCDefinition>
          <nciodm:PreferredTerm>Carbon Dioxide Measurement</nciodm:PreferredTerm>
        </EnumeratedItem>
        <EnumeratedItem CodedValue="Color" nciodm:ExtCodeID="C64546">
          <nciodm:CDISCSynonym>Color</nciodm:CDISCSynonym>
          <nciodm:CDISCDefinition>A measurement of the color of a biological specimen.</nciodm:CDISCDefinition>
          <nciodm:PreferredTerm>Color Assessment</nciodm:PreferredTerm>
        </EnumeratedItem>
        <EnumeratedItem CodedValue="Creatinine" nciodm:ExtCodeID="C64547">
          <nciodm:CDISCSynonym>Creatinine</nciodm:CDISCSynonym>
          <nciodm:CDISCDefinition>A measurement of the creatinine in a biological specimen.</nciodm:CDISCDefinition>
          <nciodm:PreferredTerm>Creatinine Measurement</nciodm:PreferredTerm>
        </EnumeratedItem>
        <EnumeratedItem CodedValue="C Reactive Protein" nciodm:ExtCodeID="C64548">
          <nciodm:CDISCSynonym>C Reactive Protein</nciodm:CDISCSynonym>
          <nciodm:CDISCDefinition>A measurement of the C reactive protein in a biological specimen.</nciodm:CDISCDefinition>
          <nciodm:PreferredTerm>C-Reactive Protein Measurement</nciodm:PreferredTerm>
        </EnumeratedItem>
        <EnumeratedItem CodedValue="Elliptocytes" nciodm:ExtCodeID="C64549">
          <nciodm:CDISCSynonym>Elliptocytes</nciodm:CDISCSynonym>
          <nciodm:CDISCSynonym>Ovalocytes</nciodm:CDISCSynonym>
          <nciodm:CDISCDefinition>A measurement of the elliptically shaped erythrocytes in a biological specimen.</nciodm:CDISCDefinition>
          <nciodm:PreferredTerm>Elliptocyte Count</nciodm:PreferredTerm>
        </EnumeratedItem>
        <EnumeratedItem CodedValue="Eosinophils" nciodm:ExtCodeID="C64550">
          <nciodm:CDISCSynonym>Eosinophils</nciodm:CDISCSynonym>
          <nciodm:CDISCDefinition>A measurement of the eosinophils in a biological specimen.</nciodm:CDISCDefinition>
          <nciodm:PreferredTerm>Eosinophil Count</nciodm:PreferredTerm>
        </EnumeratedItem>
        <EnumeratedItem CodedValue="Eosinophils/Leukocytes" nciodm:ExtCodeID="C64604">
          <nciodm:CDISCSynonym>Eosinophils/Leukocytes</nciodm:CDISCSynonym>
          <nciodm:CDISCDefinition>A relative measurement (ratio or percentage) of the eosinophils to leukocytes in a biological specimen.</nciodm:CDISCDefinition>
          <nciodm:PreferredTerm>Eosinophil To Leukocyte Ratio</nciodm:PreferredTerm>
        </EnumeratedItem>
        <EnumeratedItem CodedValue="Epithelial Cells" nciodm:ExtCodeID="C64605">
          <nciodm:CDISCSynonym>Epithelial Cells</nciodm:CDISCSynonym>
          <nciodm:CDISCDefinition>A measurement of the epithelial cells in a biological specimen.</nciodm:CDISCDefinition>
          <nciodm:PreferredTerm>Epithelial Cell Count</nciodm:PreferredTerm>
        </EnumeratedItem>
        <EnumeratedItem CodedValue="Fibrinogen" nciodm:ExtCodeID="C64606">
          <nciodm:CDISCSynonym>Fibrinogen</nciodm:CDISCSynonym>
          <nciodm:CDISCDefinition>A measurement of the fibrinogen in a biological specimen.</nciodm:CDISCDefinition>
          <nciodm:PreferredTerm>Fibrinogen Measurement</nciodm:PreferredTerm>
        </EnumeratedItem>
        <EnumeratedItem CodedValue="Hematocrit" nciodm:ExtCodeID="C64796">
          <nciodm:CDISCSynonym>Hematocrit</nciodm:CDISCSynonym>
          <nciodm:CDISCDefinition>The percentage of a whole blood specimen that is composed of red blood cells (erythrocytes).</nciodm:CDISCDefinition>
          <nciodm:PreferredTerm>Hematocrit</nciodm:PreferredTerm>
        </EnumeratedItem>
        <EnumeratedItem CodedValue="Ery. Mean Corpuscular Hemoglobin" nciodm:ExtCodeID="C64797">
          <nciodm:CDISCSynonym>Ery. Mean Corpuscular Hemoglobin</nciodm:CDISCSynonym>
          <nciodm:CDISCDefinition>A quantitative measurement of the mean amount of hemoglobin per erythrocyte in a biological specimen.</nciodm:CDISCDefinition>
          <nciodm:PreferredTerm>Erythrocyte Mean Corpuscular Hemoglobin</nciodm:PreferredTerm>
        </EnumeratedItem>
        <EnumeratedItem CodedValue="Ery. Mean Corpuscular HGB Concentration" nciodm:ExtCodeID="C64798">
          <nciodm:CDISCSynonym>Ery. Mean Corpuscular HGB Concentration</nciodm:CDISCSynonym>
          <nciodm:CDISCDefinition>A quantitative measurement of the mean amount of hemoglobin per erythrocytes in a specified volume of a biological specimen.</nciodm:CDISCDefinition>
          <nciodm:PreferredTerm>Erythrocyte Mean Corpuscular Hemoglobin Concentration</nciodm:PreferredTerm>
        </EnumeratedItem>
        <EnumeratedItem CodedValue="Ery. Mean Corpuscular Volume" nciodm:ExtCodeID="C64799">
          <nciodm:CDISCSynonym>Ery. Mean Corpuscular Volume</nciodm:CDISCSynonym>
          <nciodm:CDISCDefinition>A quantitative measurement of the mean volume of erythrocytes in a biological specimen.</nciodm:CDISCDefinition>
          <nciodm:PreferredTerm>Erythrocyte Mean Corpuscular Volume</nciodm:PreferredTerm>
        </EnumeratedItem>
        <EnumeratedItem CodedValue="Erythrocytes Distribution Width" nciodm:ExtCodeID="C64800">
          <nciodm:CDISCSynonym>Erythrocytes Distribution Width</nciodm:CDISCSynonym>
          <nciodm:CDISCDefinition>A value derived from mean corpuscular volume and the standard deviation of the red blood cell volume in a whole blood specimen.</nciodm:CDISCDefinition>
          <nciodm:PreferredTerm>Erythrocyte Distribution Width Measurement</nciodm:PreferredTerm>
        </EnumeratedItem>
        <EnumeratedItem CodedValue="Dacryocytes" nciodm:ExtCodeID="C64801">
          <nciodm:CDISCSynonym>Dacryocytes</nciodm:CDISCSynonym>
          <nciodm:CDISCSynonym>Tear Shaped Erythrocytes</nciodm:CDISCSynonym>
          <nciodm:CDISCSynonym>Teardrop Cells</nciodm:CDISCSynonym>
          <nciodm:CDISCDefinition>A measurement of dacryocytes in a biological specimen.</nciodm:CDISCDefinition>
          <nciodm:PreferredTerm>Dacryocyte Analysis</nciodm:PreferredTerm>
        </EnumeratedItem>
        <EnumeratedItem CodedValue="Hypochromia" nciodm:ExtCodeID="C64802">
          <nciodm:CDISCSynonym>Hypochromia</nciodm:CDISCSynonym>
          <nciodm:CDISCDefinition>An observation which indicates that the hemoglobin concentration in a red blood cell specimen has fallen below a specified level.</nciodm:CDISCDefinition>
          <nciodm:PreferredTerm>Hypochromia</nciodm:PreferredTerm>
        </EnumeratedItem>
        <EnumeratedItem CodedValue="Polychromasia" nciodm:ExtCodeID="C64803">
          <nciodm:CDISCSynonym>Polychromasia</nciodm:CDISCSynonym>
          <nciodm:CDISCDefinition>A measurement of the blue-staining characteristic of newly generated erythrocytes.</nciodm:CDISCDefinition>
          <nciodm:PreferredTerm>Polychromasia</nciodm:PreferredTerm>
        </EnumeratedItem>
        <EnumeratedItem CodedValue="Prothrombin Intl. Normalized Ratio" nciodm:ExtCodeID="C64805">
          <nciodm:CDISCSynonym>Prothrombin Intl. Normalized Ratio</nciodm:CDISCSynonym>
          <nciodm:CDISCDefinition>A ratio that represents the prothrombin time for a plasma specimen, divided by the result for a control plasma specimen, further standardized for the International Sensitivity Index of the tissue factor (thromboplastin) used in the test.</nciodm:CDISCDefinition>
          <nciodm:PreferredTerm>International Normalized Ratio of Prothrombin Time</nciodm:PreferredTerm>
        </EnumeratedItem>
        <EnumeratedItem CodedValue="VLDL Cholesterol" nciodm:ExtCodeID="C64806">
          <nciodm:CDISCSynonym>VLDL Cholesterol</nciodm:CDISCSynonym>
          <nciodm:CDISCDefinition>A measurement of the very low density lipoprotein cholesterol in a biological specimen.</nciodm:CDISCDefinition>
          <nciodm:PreferredTerm>Serum VLDL Cholesterol Measurement</nciodm:PreferredTerm>
        </EnumeratedItem>
        <EnumeratedItem CodedValue="Triacylglycerol Lipase" nciodm:ExtCodeID="C64807">
          <nciodm:CDISCSynonym>Triacylglycerol Lipase</nciodm:CDISCSynonym>
          <nciodm:CDISCDefinition>A measurement of the pancreatic lipase in a biological specimen.</nciodm:CDISCDefinition>
          <nciodm:PreferredTerm>Triacylglycerol Lipase Measurement</nciodm:PreferredTerm>
        </EnumeratedItem>
        <EnumeratedItem CodedValue="Sodium" nciodm:ExtCodeID="C64809">
          <nciodm:CDISCSynonym>Sodium</nciodm:CDISCSynonym>
          <nciodm:CDISCDefinition>A measurement of the sodium in a biological specimen.</nciodm:CDISCDefinition>
          <nciodm:PreferredTerm>Sodium Measurement</nciodm:PreferredTerm>
        </EnumeratedItem>
        <EnumeratedItem CodedValue="Nitrite" nciodm:ExtCodeID="C64810">
          <nciodm:CDISCSynonym>Nitrite</nciodm:CDISCSynonym>
          <nciodm:CDISCDefinition>A measurement of the nitrite in a urine specimen.</nciodm:CDISCDefinition>
          <nciodm:PreferredTerm>Nitrite Measurement</nciodm:PreferredTerm>
        </EnumeratedItem>
        <EnumeratedItem CodedValue="Triglycerides" nciodm:ExtCodeID="C64812">
          <nciodm:CDISCSynonym>Triglycerides</nciodm:CDISCSynonym>
          <nciodm:CDISCDefinition>A measurement of the triglycerides in a biological specimen.</nciodm:CDISCDefinition>
          <nciodm:PreferredTerm>Triglyceride Measurement</nciodm:PreferredTerm>
        </EnumeratedItem>
        <EnumeratedItem CodedValue="Thyrotropin" nciodm:ExtCodeID="C64813">
          <nciodm:CDISCSynonym>Thyrotropin</nciodm:CDISCSynonym>
          <nciodm:CDISCDefinition>A measurement of the thyrotropin in a biological specimen.</nciodm:CDISCDefinition>
          <nciodm:PreferredTerm>Thyrotropin Measurement</nciodm:PreferredTerm>
        </EnumeratedItem>
        <EnumeratedItem CodedValue="Urate" nciodm:ExtCodeID="C64814">
          <nciodm:CDISCSynonym>Urate</nciodm:CDISCSynonym>
          <nciodm:CDISCSynonym>Uric Acid</nciodm:CDISCSynonym>
          <nciodm:CDISCDefinition>A measurement of the urate in a biological specimen.</nciodm:CDISCDefinition>
          <nciodm:PreferredTerm>Urate Measurement</nciodm:PreferredTerm>
        </EnumeratedItem>
        <EnumeratedItem CodedValue="Urea" nciodm:ExtCodeID="C64815">
          <nciodm:CDISCSynonym>Urea</nciodm:CDISCSynonym>
          <nciodm:CDISCDefinition>A measurement of the urea in a biological specimen.</nciodm:CDISCDefinition>
          <nciodm:PreferredTerm>Urea Measurement</nciodm:PreferredTerm>
        </EnumeratedItem>
        <EnumeratedItem CodedValue="Urobilinogen" nciodm:ExtCodeID="C64816">
          <nciodm:CDISCSynonym>Urobilinogen</nciodm:CDISCSynonym>
          <nciodm:CDISCDefinition>A measurement of the urobilinogen in a biological specimen.</nciodm:CDISCDefinition>
          <nciodm:PreferredTerm>Urobilinogen Measurement</nciodm:PreferredTerm>
        </EnumeratedItem>
        <EnumeratedItem CodedValue="Vitamin B12" nciodm:ExtCodeID="C64817">
          <nciodm:CDISCSynonym>Vitamin B12</nciodm:CDISCSynonym>
          <nciodm:CDISCDefinition>A measurement of the Vitamin B12 in a serum specimen.</nciodm:CDISCDefinition>
          <nciodm:PreferredTerm>Vitamin B12 Measurement</nciodm:PreferredTerm>
        </EnumeratedItem>
        <EnumeratedItem CodedValue="Lymphocytes Atypical" nciodm:ExtCodeID="C64818">
          <nciodm:CDISCSynonym>Lymphocytes Atypical</nciodm:CDISCSynonym>
          <nciodm:CDISCDefinition>A measurement of the atypical lymphocytes in a biological specimen.</nciodm:CDISCDefinition>
          <nciodm:PreferredTerm>Atypical Lymphocyte Count</nciodm:PreferredTerm>
        </EnumeratedItem>
        <EnumeratedItem CodedValue="Lymphocytes Atypical/Leukocytes" nciodm:ExtCodeID="C64819">
          <nciodm:CDISCSynonym>Lymphocytes Atypical/Leukocytes</nciodm:CDISCSynonym>
          <nciodm:CDISCDefinition>A relative measurement (ratio or percentage) of the atypical lymphocytes to leukocytes in a biological specimen.</nciodm:CDISCDefinition>
          <nciodm:PreferredTerm>Atypical Lymphocyte To Leukocyte Ratio</nciodm:PreferredTerm>
        </EnumeratedItem>
        <EnumeratedItem CodedValue="Lymphocytes/Leukocytes" nciodm:ExtCodeID="C64820">
          <nciodm:CDISCSynonym>Lymphocytes/Leukocytes</nciodm:CDISCSynonym>
          <nciodm:CDISCDefinition>A relative measurement (ratio or percentage) of the lymphocytes to leukocytes in a biological specimen.</nciodm:CDISCDefinition>
          <nciodm:PreferredTerm>Lymphocyte To Leukocyte Ratio</nciodm:PreferredTerm>
        </EnumeratedItem>
        <EnumeratedItem CodedValue="Macrocytes" nciodm:ExtCodeID="C64821">
          <nciodm:CDISCSynonym>Macrocytes</nciodm:CDISCSynonym>
          <nciodm:CDISCDefinition>A measurement of the macrocytes in a biological specimen.</nciodm:CDISCDefinition>
          <nciodm:PreferredTerm>Macrocyte Count</nciodm:PreferredTerm>
        </EnumeratedItem>
        <EnumeratedItem CodedValue="Microcytes" nciodm:ExtCodeID="C64822">
          <nciodm:CDISCSynonym>Microcytes</nciodm:CDISCSynonym>
          <nciodm:CDISCDefinition>A measurement of the microcytes in a biological specimen.</nciodm:CDISCDefinition>
          <nciodm:PreferredTerm>Microcyte Count</nciodm:PreferredTerm>
        </EnumeratedItem>
        <EnumeratedItem CodedValue="Monocytes" nciodm:ExtCodeID="C64823">
          <nciodm:CDISCSynonym>Monocytes</nciodm:CDISCSynonym>
          <nciodm:CDISCDefinition>A measurement of the monocytes in a biological specimen.</nciodm:CDISCDefinition>
          <nciodm:PreferredTerm>Monocyte Count</nciodm:PreferredTerm>
        </EnumeratedItem>
        <EnumeratedItem CodedValue="Monocytes/Leukocytes" nciodm:ExtCodeID="C64824">
          <nciodm:CDISCSynonym>Monocytes/Leukocytes</nciodm:CDISCSynonym>
          <nciodm:CDISCDefinition>A relative measurement (ratio or percentage) of the monocytes to leukocytes in a biological specimen.</nciodm:CDISCDefinition>
          <nciodm:PreferredTerm>Monocyte To Leukocyte Ratio</nciodm:PreferredTerm>
        </EnumeratedItem>
        <EnumeratedItem CodedValue="Myeloblasts/Leukocytes" nciodm:ExtCodeID="C64825">
          <nciodm:CDISCSynonym>Myeloblasts/Leukocytes</nciodm:CDISCSynonym>
          <nciodm:CDISCDefinition>A relative measure (ratio or percentage) of the myeloblasts to leukocytes in a biological specimen.</nciodm:CDISCDefinition>
          <nciodm:PreferredTerm>Myeloblast To Leukocyte Ratio</nciodm:PreferredTerm>
        </EnumeratedItem>
        <EnumeratedItem CodedValue="Myelocytes/Leukocytes" nciodm:ExtCodeID="C64826">
          <nciodm:CDISCSynonym>Myelocytes/Leukocytes</nciodm:CDISCSynonym>
          <nciodm:CDISCDefinition>A relative measurement (ratio or percentage) of the myelocytes to leukocytes in a biological specimen.</nciodm:CDISCDefinition>
          <nciodm:PreferredTerm>Myelocyte To Leukocyte Ratio</nciodm:PreferredTerm>
        </EnumeratedItem>
        <EnumeratedItem CodedValue="Neutrophils/Leukocytes" nciodm:ExtCodeID="C64827">
          <nciodm:CDISCSynonym>Neutrophils/Leukocytes</nciodm:CDISCSynonym>
          <nciodm:CDISCDefinition>A relative measurement (ratio or percentage) of the neutrophils to leukocytes in a biological specimen.</nciodm:CDISCDefinition>
          <nciodm:PreferredTerm>Neutrophil To Leukocyte Ratio</nciodm:PreferredTerm>
        </EnumeratedItem>
        <EnumeratedItem CodedValue="Reticulocytes/Erythrocytes" nciodm:ExtCodeID="C64828">
          <nciodm:CDISCSynonym>Reticulocytes/Erythrocytes</nciodm:CDISCSynonym>
          <nciodm:CDISCDefinition>A relative measurement (ratio or percentage) of reticulocytes to erythrocytes in a biological specimen.</nciodm:CDISCDefinition>
          <nciodm:PreferredTerm>Reticulocyte To Erythrocyte Ratio</nciodm:PreferredTerm>
        </EnumeratedItem>
        <EnumeratedItem CodedValue="Prolymphocytes/Leukocytes" nciodm:ExtCodeID="C64829">
          <nciodm:CDISCSynonym>Prolymphocytes/Leukocytes</nciodm:CDISCSynonym>
          <nciodm:CDISCDefinition>A relative measurement (ratio or percentage) of prolymphocytes to leukocytes in a biological specimen.</nciodm:CDISCDefinition>
          <nciodm:PreferredTerm>Prolymphocyte To Leukocyte Ratio</nciodm:PreferredTerm>
        </EnumeratedItem>
        <EnumeratedItem CodedValue="Neutrophils Band Form" nciodm:ExtCodeID="C64830">
          <nciodm:CDISCSynonym>Neutrophils Band Form</nciodm:CDISCSynonym>
          <nciodm:CDISCDefinition>A measurement of the banded neutrophils in a biological specimen.</nciodm:CDISCDefinition>
          <nciodm:PreferredTerm>Neutrophil Band Form Count</nciodm:PreferredTerm>
        </EnumeratedItem>
        <EnumeratedItem CodedValue="Neutrophils Band Form/Leukocytes" nciodm:ExtCodeID="C64831">
          <nciodm:CDISCSynonym>Neutrophils Band Form/Leukocytes</nciodm:CDISCSynonym>
          <nciodm:CDISCDefinition>A relative measurement (ratio or percentage) of the banded neutrophils to leukocytes in a biological specimen.</nciodm:CDISCDefinition>
          <nciodm:PreferredTerm>Neutrophil Band Form To Leukocyte Ratio</nciodm:PreferredTerm>
        </EnumeratedItem>
        <EnumeratedItem CodedValue="Specific Gravity" nciodm:ExtCodeID="C64832">
          <nciodm:CDISCSynonym>Specific Gravity</nciodm:CDISCSynonym>
          <nciodm:CDISCDefinition>A ratio of the density of a fluid to the density of water.</nciodm:CDISCDefinition>
          <nciodm:PreferredTerm>Specific Gravity</nciodm:PreferredTerm>
        </EnumeratedItem>
        <EnumeratedItem CodedValue="Magnesium" nciodm:ExtCodeID="C64840">
          <nciodm:CDISCSynonym>Magnesium</nciodm:CDISCSynonym>
          <nciodm:CDISCDefinition>A measurement of the magnesium in a biological specimen.</nciodm:CDISCDefinition>
          <nciodm:PreferredTerm>Magnesium Measurement</nciodm:PreferredTerm>
        </EnumeratedItem>
        <EnumeratedItem CodedValue="Gamma Glutamyl Transferase" nciodm:ExtCodeID="C64847">
          <nciodm:CDISCSynonym>Gamma Glutamyl Transferase</nciodm:CDISCSynonym>
          <nciodm:CDISCDefinition>A measurement of the gamma glutamyl transferase in a biological specimen.</nciodm:CDISCDefinition>
          <nciodm:PreferredTerm>Gamma Glutamyl Transpeptidase Measurement</nciodm:PreferredTerm>
        </EnumeratedItem>
        <EnumeratedItem CodedValue="Hemoglobin" nciodm:ExtCodeID="C64848">
          <nciodm:CDISCSynonym>Hemoglobin</nciodm:CDISCSynonym>
          <nciodm:CDISCDefinition>A measurement of the hemoglobin in a biological specimen.</nciodm:CDISCDefinition>
          <nciodm:PreferredTerm>Hemoglobin Measurement</nciodm:PreferredTerm>
        </EnumeratedItem>
        <EnumeratedItem CodedValue="Hemoglobin A1C" nciodm:ExtCodeID="C64849">
          <nciodm:CDISCSynonym>Hemoglobin A1C</nciodm:CDISCSynonym>
          <nciodm:CDISCDefinition>A measurement of the glycosylated hemoglobin in a biological specimen.</nciodm:CDISCDefinition>
          <nciodm:PreferredTerm>Glycosylated Hemoglobin Measurement</nciodm:PreferredTerm>
        </EnumeratedItem>
        <EnumeratedItem CodedValue="Hepatitis B Virus Surface Antigen" nciodm:ExtCodeID="C64850">
          <nciodm:CDISCSynonym>Hepatitis B Virus Surface Antigen</nciodm:CDISCSynonym>
          <nciodm:CDISCDefinition>A measurement of the surface antigen reaction of a biological specimen to the Hepatitis B virus.</nciodm:CDISCDefinition>
          <nciodm:PreferredTerm>Hepatitis B Virus Surface Antigen Measurement</nciodm:PreferredTerm>
        </EnumeratedItem>
        <EnumeratedItem CodedValue="Choriogonadotropin Beta" nciodm:ExtCodeID="C64851">
          <nciodm:CDISCSynonym>Choriogonadotropin Beta</nciodm:CDISCSynonym>
          <nciodm:CDISCSynonym>Pregnancy Test</nciodm:CDISCSynonym>
          <nciodm:CDISCDefinition>A measurement of the Choriogonadotropin Beta in a biological specimen.</nciodm:CDISCDefinition>
          <nciodm:PreferredTerm>Choriogonadotropin Beta Measurement</nciodm:PreferredTerm>
        </EnumeratedItem>
        <EnumeratedItem CodedValue="Potassium" nciodm:ExtCodeID="C64853">
          <nciodm:CDISCSynonym>Potassium</nciodm:CDISCSynonym>
          <nciodm:CDISCDefinition>A measurement of the potassium in a biological specimen.</nciodm:CDISCDefinition>
          <nciodm:PreferredTerm>Potassium Measurement</nciodm:PreferredTerm>
        </EnumeratedItem>
        <EnumeratedItem CodedValue="Ketones" nciodm:ExtCodeID="C64854">
          <nciodm:CDISCSynonym>Ketones</nciodm:CDISCSynonym>
          <nciodm:CDISCDefinition>A measurement of the ketones in a biological specimen.</nciodm:CDISCDefinition>
          <nciodm:PreferredTerm>Ketone Measurement</nciodm:PreferredTerm>
        </EnumeratedItem>
        <EnumeratedItem CodedValue="Lactate Dehydrogenase" nciodm:ExtCodeID="C64855">
          <nciodm:CDISCSynonym>Lactate Dehydrogenase</nciodm:CDISCSynonym>
          <nciodm:CDISCDefinition>A measurement of the lactate dehydrogenase in a biological specimen.</nciodm:CDISCDefinition>
          <nciodm:PreferredTerm>Lactate Dehydrogenase Measurement</nciodm:PreferredTerm>
        </EnumeratedItem>
        <EnumeratedItem CodedValue="Leukocyte Esterase" nciodm:ExtCodeID="C64856">
          <nciodm:CDISCSynonym>Leukocyte Esterase</nciodm:CDISCSynonym>
          <nciodm:CDISCDefinition>A measurement of the enzyme which indicates the presence of white blood cells in a biological specimen.</nciodm:CDISCDefinition>
          <nciodm:PreferredTerm>Leukocyte Esterase Measurement</nciodm:PreferredTerm>
        </EnumeratedItem>
        <EnumeratedItem CodedValue="Phosphate" nciodm:ExtCodeID="C64857">
          <nciodm:CDISCSynonym>Phosphate</nciodm:CDISCSynonym>
          <nciodm:CDISCSynonym>Phosphorus</nciodm:CDISCSynonym>
          <nciodm:CDISCDefinition>A measurement of the phosphate in a biological specimen.</nciodm:CDISCDefinition>
          <nciodm:PreferredTerm>Phosphate Measurement</nciodm:PreferredTerm>
        </EnumeratedItem>
        <EnumeratedItem CodedValue="Protein" nciodm:ExtCodeID="C64858">
          <nciodm:CDISCSynonym>Protein</nciodm:CDISCSynonym>
          <nciodm:CDISCDefinition>A measurement of a group of complex organic macromolecules composed of one or more alpha-L-amino acid chains in a biological specimen.</nciodm:CDISCDefinition>
          <nciodm:PreferredTerm>Total Protein Measurement</nciodm:PreferredTerm>
        </EnumeratedItem>
        <EnumeratedItem CodedValue="Prostate Specific Antigen" nciodm:ExtCodeID="C17634">
          <nciodm:CDISCSynonym>Prostate Specific Antigen</nciodm:CDISCSynonym>
          <nciodm:CDISCDefinition>A measurement of the prostate specific antigen in a biological specimen.</nciodm:CDISCDefinition>
          <nciodm:PreferredTerm>Prostate Specific Antigen Measurement</nciodm:PreferredTerm>
        </EnumeratedItem>
        <EnumeratedItem CodedValue="Creatinine Clearance" nciodm:ExtCodeID="C25747">
          <nciodm:CDISCSynonym>Creatinine Clearance</nciodm:CDISCSynonym>
          <nciodm:CDISCDefinition>A measurement of the volume of serum or plasma that would be cleared of creatinine by excretion of urine for a specified unit of time (e.g. one minute).</nciodm:CDISCDefinition>
          <nciodm:PreferredTerm>Creatinine Clearance</nciodm:PreferredTerm>
        </EnumeratedItem>
        <EnumeratedItem CodedValue="Hairy Cells" nciodm:ExtCodeID="C74604">
          <nciodm:CDISCSynonym>Hairy Cells</nciodm:CDISCSynonym>
          <nciodm:CDISCDefinition>A measurement of the hairy cells (b-cell lymphocytes with hairy projections from the cytoplasm) in a biological specimen.</nciodm:CDISCDefinition>
          <nciodm:PreferredTerm>Hairy Cell Count</nciodm:PreferredTerm>
        </EnumeratedItem>
        <EnumeratedItem CodedValue="Blasts" nciodm:ExtCodeID="C74605">
          <nciodm:CDISCSynonym>Blasts</nciodm:CDISCSynonym>
          <nciodm:CDISCDefinition>A measurement of the blast cells in a biological specimen.</nciodm:CDISCDefinition>
          <nciodm:PreferredTerm>Blast Count</nciodm:PreferredTerm>
        </EnumeratedItem>
        <EnumeratedItem CodedValue="CD19" nciodm:ExtCodeID="C74606">
          <nciodm:CDISCSynonym>CD19</nciodm:CDISCSynonym>
          <nciodm:CDISCDefinition>A measurement of the CD19 B cells in a biological specimen.</nciodm:CDISCDefinition>
          <nciodm:PreferredTerm>CD19 Expressing B Cell Count</nciodm:PreferredTerm>
        </EnumeratedItem>
        <EnumeratedItem CodedValue="CD3" nciodm:ExtCodeID="C74607">
          <nciodm:CDISCSynonym>CD3</nciodm:CDISCSynonym>
          <nciodm:CDISCDefinition>A measurement of the CD3 T cells in a biological specimen.</nciodm:CDISCDefinition>
          <nciodm:PreferredTerm>CD3 Expressing T Cell Count</nciodm:PreferredTerm>
        </EnumeratedItem>
        <EnumeratedItem CodedValue="CD4" nciodm:ExtCodeID="C74608">
          <nciodm:CDISCSynonym>CD4</nciodm:CDISCSynonym>
          <nciodm:CDISCDefinition>A measurement of the CD4 T cells in a biological specimen.</nciodm:CDISCDefinition>
          <nciodm:PreferredTerm>CD4 Expressing T Cell Count</nciodm:PreferredTerm>
        </EnumeratedItem>
        <EnumeratedItem CodedValue="CD8" nciodm:ExtCodeID="C74609">
          <nciodm:CDISCSynonym>CD8</nciodm:CDISCSynonym>
          <nciodm:CDISCDefinition>A measurement of the CD8 T cells in a biological specimen.</nciodm:CDISCDefinition>
          <nciodm:PreferredTerm>CD8 Expressing T Cell Count</nciodm:PreferredTerm>
        </EnumeratedItem>
        <EnumeratedItem CodedValue="Dohle Bodies" nciodm:ExtCodeID="C74610">
          <nciodm:CDISCSynonym>Dohle Bodies</nciodm:CDISCSynonym>
          <nciodm:CDISCDefinition>A measurement of the Dohle bodies (blue-gray, basophilic, leukocyte inclusions located in the peripheral cytoplasm of neutrophils) in a biological specimen.</nciodm:CDISCDefinition>
          <nciodm:PreferredTerm>Dohle Body Measurement</nciodm:PreferredTerm>
        </EnumeratedItem>
        <EnumeratedItem CodedValue="Erythrocyte Sedimentation Rate" nciodm:ExtCodeID="C74611">
          <nciodm:CDISCSynonym>Erythrocyte Sedimentation Rate</nciodm:CDISCSynonym>
          <nciodm:CDISCSynonym>Biernacki Reaction</nciodm:CDISCSynonym>
          <nciodm:CDISCDefinition>The distance (e.g. millimeters) that red blood cells settle in unclotted blood over a specified unit of time (e.g. one hour).</nciodm:CDISCDefinition>
          <nciodm:PreferredTerm>Erythrocyte Sedimentation Rate Measurement</nciodm:PreferredTerm>
        </EnumeratedItem>
        <EnumeratedItem CodedValue="Hypersegmented Cells" nciodm:ExtCodeID="C74612">
          <nciodm:CDISCSynonym>Hypersegmented Cells</nciodm:CDISCSynonym>
          <nciodm:CDISCDefinition>A measurement of the hypersegmented (more than five lobes) neutrophils in a biological specimen.</nciodm:CDISCDefinition>
          <nciodm:PreferredTerm>Hypersegmented Neutrophil Measurement</nciodm:PreferredTerm>
        </EnumeratedItem>
        <EnumeratedItem CodedValue="Lymphoma Cells" nciodm:ExtCodeID="C74613">
          <nciodm:CDISCSynonym>Lymphoma Cells</nciodm:CDISCSynonym>
          <nciodm:CDISCDefinition>A measurement of the malignant lymphocytes in a biological specimen.</nciodm:CDISCDefinition>
          <nciodm:PreferredTerm>Lymphoma Cell Count</nciodm:PreferredTerm>
        </EnumeratedItem>
        <EnumeratedItem CodedValue="May-Hegglin Anomaly" nciodm:ExtCodeID="C74614">
          <nciodm:CDISCSynonym>May-Hegglin Anomaly</nciodm:CDISCSynonym>
          <nciodm:CDISCDefinition>A measurement of the May-Hegglin anomaly in a blood sample. This anomaly is characterized by large, misshapen platelets and the presence of Dohle bodies in leukocytes.</nciodm:CDISCDefinition>
          <nciodm:PreferredTerm>May-Hegglin Anomaly Measurement</nciodm:PreferredTerm>
        </EnumeratedItem>
        <EnumeratedItem CodedValue="Metamyelocytes" nciodm:ExtCodeID="C74615">
          <nciodm:CDISCSynonym>Metamyelocytes</nciodm:CDISCSynonym>
          <nciodm:CDISCDefinition>A measurement of the metamyelocytes (small, myelocytic neutrophils with an indented nucleus) in a biological specimen.</nciodm:CDISCDefinition>
          <nciodm:PreferredTerm>Metamyelocyte Count</nciodm:PreferredTerm>
        </EnumeratedItem>
        <EnumeratedItem CodedValue="Pappenheimer Bodies" nciodm:ExtCodeID="C74616">
          <nciodm:CDISCSynonym>Pappenheimer Bodies</nciodm:CDISCSynonym>
          <nciodm:CDISCDefinition>A measurement of the cells containing Pappenheimer Bodies (violet or blue staining ferritin granules usually found along the periphery of the red blood cells) in a biological specimen.</nciodm:CDISCDefinition>
          <nciodm:PreferredTerm>Pappenheimer Body Count</nciodm:PreferredTerm>
        </EnumeratedItem>
        <EnumeratedItem CodedValue="Pelger Huet Anomaly" nciodm:ExtCodeID="C74617">
          <nciodm:CDISCSynonym>Pelger Huet Anomaly</nciodm:CDISCSynonym>
          <nciodm:CDISCDefinition>A measurement of the Pelger Huet Anomaly (nuclei of neutrophils and eosinophils appear rod-like, spherical or dumbbell shaped) in a biological specimen.</nciodm:CDISCDefinition>
          <nciodm:PreferredTerm>Pelger Huet Anomaly Measurement</nciodm:PreferredTerm>
        </EnumeratedItem>
        <EnumeratedItem CodedValue="Plasmacytoid Lymphocytes" nciodm:ExtCodeID="C74618">
          <nciodm:CDISCSynonym>Plasmacytoid Lymphocytes</nciodm:CDISCSynonym>
          <nciodm:CDISCSynonym>Plymphocytes</nciodm:CDISCSynonym>
          <nciodm:CDISCDefinition>A measurement of the plasmacytoid lymphocytes (lymphocytes with peripherally clumped chromatin and often deep blue cytoplasm, and that appear similar to plasma cells) in a biological specimen.</nciodm:CDISCDefinition>
          <nciodm:PreferredTerm>Plasmacytoid Lymphocyte Count</nciodm:PreferredTerm>
        </EnumeratedItem>
        <EnumeratedItem CodedValue="Precursor Plasma Cells" nciodm:ExtCodeID="C74619">
          <nciodm:CDISCSynonym>Precursor Plasma Cells</nciodm:CDISCSynonym>
          <nciodm:CDISCSynonym>Plasmablast</nciodm:CDISCSynonym>
          <nciodm:CDISCDefinition>A measurement of the precursor (blast stage) plasma cells (antibody secreting cells derived from B cells via antigen stimulation) in a biological specimen.</nciodm:CDISCDefinition>
          <nciodm:PreferredTerm>Precursor Plasma Cell Count</nciodm:PreferredTerm>
        </EnumeratedItem>
        <EnumeratedItem CodedValue="Prolymphocytes" nciodm:ExtCodeID="C74620">
          <nciodm:CDISCSynonym>Prolymphocytes</nciodm:CDISCSynonym>
          <nciodm:CDISCDefinition>A measurement of the prolymphocytes in a biological specimen.</nciodm:CDISCDefinition>
          <nciodm:PreferredTerm>Prolymphocyte Count</nciodm:PreferredTerm>
        </EnumeratedItem>
        <EnumeratedItem CodedValue="Promonocytes" nciodm:ExtCodeID="C74621">
          <nciodm:CDISCSynonym>Promonocytes</nciodm:CDISCSynonym>
          <nciodm:CDISCDefinition>A measurement of the promonocytes in a biological specimen.</nciodm:CDISCDefinition>
          <nciodm:PreferredTerm>Promonocyte Count</nciodm:PreferredTerm>
        </EnumeratedItem>
        <EnumeratedItem CodedValue="Promyelocytes" nciodm:ExtCodeID="C74622">
          <nciodm:CDISCSynonym>Promyelocytes</nciodm:CDISCSynonym>
          <nciodm:CDISCDefinition>A measurement of the promyelocytes (immature myelocytes) in a biological specimen.</nciodm:CDISCDefinition>
          <nciodm:PreferredTerm>Promyelocyte Count</nciodm:PreferredTerm>
        </EnumeratedItem>
        <EnumeratedItem CodedValue="Rouleaux Formation" nciodm:ExtCodeID="C74624">
          <nciodm:CDISCSynonym>Rouleaux Formation</nciodm:CDISCSynonym>
          <nciodm:CDISCDefinition>A measurement of the number of stacking red blood cells within a biological specimen.</nciodm:CDISCDefinition>
          <nciodm:PreferredTerm>Rouleaux Formation Count</nciodm:PreferredTerm>
        </EnumeratedItem>
        <EnumeratedItem CodedValue="Sezary Cells" nciodm:ExtCodeID="C74625">
          <nciodm:CDISCSynonym>Sezary Cells</nciodm:CDISCSynonym>
          <nciodm:CDISCDefinition>A measurement of the Sezary cells (atypical lymphocytes with cerebriform nuclei) in a biological specimen.</nciodm:CDISCDefinition>
          <nciodm:PreferredTerm>Sezary Cell Count</nciodm:PreferredTerm>
        </EnumeratedItem>
        <EnumeratedItem CodedValue="Sickle Cells" nciodm:ExtCodeID="C74626">
          <nciodm:CDISCSynonym>Sickle Cells</nciodm:CDISCSynonym>
          <nciodm:CDISCDefinition>A measurement of the sickle cells (sickle shaped red blood cells) in a biological specimen.</nciodm:CDISCDefinition>
          <nciodm:PreferredTerm>Sickle Cell Count</nciodm:PreferredTerm>
        </EnumeratedItem>
        <EnumeratedItem CodedValue="Smudge Cells" nciodm:ExtCodeID="C74627">
          <nciodm:CDISCSynonym>Smudge Cells</nciodm:CDISCSynonym>
          <nciodm:CDISCSynonym>Basket Cells</nciodm:CDISCSynonym>
          <nciodm:CDISCDefinition>A measurement of the smudge cells (the nuclear remnant of a ruptured white blood cell) in a biological specimen.</nciodm:CDISCDefinition>
          <nciodm:PreferredTerm>Smudge Cell Count</nciodm:PreferredTerm>
        </EnumeratedItem>
        <EnumeratedItem CodedValue="Vacuolated Neutrophils" nciodm:ExtCodeID="C74628">
          <nciodm:CDISCSynonym>Vacuolated Neutrophils</nciodm:CDISCSynonym>
          <nciodm:CDISCDefinition>A measurement of the neutrophils containing small vacuoles in a biological specimen.</nciodm:CDISCDefinition>
          <nciodm:PreferredTerm>Vacuolated Neutrophil Count</nciodm:PreferredTerm>
        </EnumeratedItem>
        <EnumeratedItem CodedValue="Leukemic Blasts" nciodm:ExtCodeID="C74630">
          <nciodm:CDISCSynonym>Leukemic Blasts</nciodm:CDISCSynonym>
          <nciodm:CDISCSynonym>Leukemic Lymphoblasts</nciodm:CDISCSynonym>
          <nciodm:CDISCSynonym>Immunoblastic Lymphocytes</nciodm:CDISCSynonym>
          <nciodm:CDISCDefinition>A measurement of the leukemic blasts (lymphoblasts that remain in an immature state even when outside the bone marrow) in a biological specimen.</nciodm:CDISCDefinition>
          <nciodm:PreferredTerm>Leukemic Blast Count</nciodm:PreferredTerm>
        </EnumeratedItem>
        <EnumeratedItem CodedValue="Monoblasts" nciodm:ExtCodeID="C74631">
          <nciodm:CDISCSynonym>Monoblasts</nciodm:CDISCSynonym>
          <nciodm:CDISCDefinition>A measurement of the monoblast cells in a biological specimen.</nciodm:CDISCDefinition>
          <nciodm:PreferredTerm>Monoblast Count</nciodm:PreferredTerm>
        </EnumeratedItem>
        <EnumeratedItem CodedValue="Myeloblasts" nciodm:ExtCodeID="C74632">
          <nciodm:CDISCSynonym>Myeloblasts</nciodm:CDISCSynonym>
          <nciodm:CDISCDefinition>A measurement of the myeloblast cells in a biological specimen.</nciodm:CDISCDefinition>
          <nciodm:PreferredTerm>Myeloblast Count</nciodm:PreferredTerm>
        </EnumeratedItem>
        <EnumeratedItem CodedValue="Acanthocytes/Erythrocytes" nciodm:ExtCodeID="C74633">
          <nciodm:CDISCSynonym>Acanthocytes/Erythrocytes</nciodm:CDISCSynonym>
          <nciodm:CDISCDefinition>A relative measurement (ratio or percentage) of acanthocytes to all erythrocytes in a biological specimen.</nciodm:CDISCDefinition>
          <nciodm:PreferredTerm>Acanthocyte to Erythrocyte Ratio Measurement</nciodm:PreferredTerm>
        </EnumeratedItem>
        <EnumeratedItem CodedValue="Bite Cells/Erythrocytes" nciodm:ExtCodeID="C74634">
          <nciodm:CDISCSynonym>Bite Cells/Erythrocytes</nciodm:CDISCSynonym>
          <nciodm:CDISCDefinition>A relative measurement (ratio or percentage) of bite cells (erythrocytes with the appearance of a bite having been removed, due to oxidative hemolysis) to all erythrocytes in a biological specimen .</nciodm:CDISCDefinition>
          <nciodm:PreferredTerm>Bite Cell to Erythrocyte Ratio Measurement</nciodm:PreferredTerm>
        </EnumeratedItem>
        <EnumeratedItem CodedValue="CD19/Lymphocytes" nciodm:ExtCodeID="C74635">
          <nciodm:CDISCSynonym>CD19/Lymphocytes</nciodm:CDISCSynonym>
          <nciodm:CDISCDefinition>A relative measurement (ratio or percentage) of CD19 B cells to all lymphocytes in a biological specimen.</nciodm:CDISCDefinition>
          <nciodm:PreferredTerm>CD19 B Cell to Lymphocyte Ratio Measurement</nciodm:PreferredTerm>
        </EnumeratedItem>
        <EnumeratedItem CodedValue="CD3/Lymphocytes" nciodm:ExtCodeID="C74636">
          <nciodm:CDISCSynonym>CD3/Lymphocytes</nciodm:CDISCSynonym>
          <nciodm:CDISCDefinition>A relative measurement (ratio or percentage) of CD3 T cells to all lymphocytes in a biological specimen.</nciodm:CDISCDefinition>
          <nciodm:PreferredTerm>CD3 T Cell to Lymphocyte Ratio Measurement</nciodm:PreferredTerm>
        </EnumeratedItem>
        <EnumeratedItem CodedValue="CD4/CD8" nciodm:ExtCodeID="C74637">
          <nciodm:CDISCSynonym>CD4/CD8</nciodm:CDISCSynonym>
          <nciodm:CDISCDefinition>A relative measurement (ratio or percentage) of CD4 T cells to the CD8 T cells in a biological specimen.</nciodm:CDISCDefinition>
          <nciodm:PreferredTerm>CD4 T Cell to CD8 T Cell Ratio Measurement</nciodm:PreferredTerm>
        </EnumeratedItem>
        <EnumeratedItem CodedValue="CD4/Lymphocytes" nciodm:ExtCodeID="C74638">
          <nciodm:CDISCSynonym>CD4/Lymphocytes</nciodm:CDISCSynonym>
          <nciodm:CDISCDefinition>A relative measurement (ratio or percentage) of CD4 T cells to all lymphocytes in a biological specimen.</nciodm:CDISCDefinition>
          <nciodm:PreferredTerm>CD4 T Cell to Lymphocyte Ratio Measurement</nciodm:PreferredTerm>
        </EnumeratedItem>
        <EnumeratedItem CodedValue="CD8/Lymphocytes" nciodm:ExtCodeID="C74639">
          <nciodm:CDISCSynonym>CD8/Lymphocytes</nciodm:CDISCSynonym>
          <nciodm:CDISCDefinition>A relative measurement (ratio or percentage) of CD8 T cells to all lymphocytes in a biological specimen.</nciodm:CDISCDefinition>
          <nciodm:PreferredTerm>CD8 T Cell to Lymphocyte Ratio Measurement</nciodm:PreferredTerm>
        </EnumeratedItem>
        <EnumeratedItem CodedValue="Hairy Cells/Lymphocytes" nciodm:ExtCodeID="C74640">
          <nciodm:CDISCSynonym>Hairy Cells/Lymphocytes</nciodm:CDISCSynonym>
          <nciodm:CDISCDefinition>A relative measurement (ratio or percentage) of the hairy cells (b-cell lymphocytes with hairy projections from the cytoplasm) to all lymphocytes in a biological specimen .</nciodm:CDISCDefinition>
          <nciodm:PreferredTerm>Hairy Cell to Lymphocyte Ratio Measurement</nciodm:PreferredTerm>
        </EnumeratedItem>
        <EnumeratedItem CodedValue="Leukemic Blasts/Lymphocytes" nciodm:ExtCodeID="C74641">
          <nciodm:CDISCSynonym>Leukemic Blasts/Lymphocytes</nciodm:CDISCSynonym>
          <nciodm:CDISCDefinition>A relative measurement (ratio or percentage) of the leukemic blasts (immature lymphoblasts) to mature lymphocytes in a biological specimen.</nciodm:CDISCDefinition>
          <nciodm:PreferredTerm>Leukemic Blast to Lymphocyte Ratio Measurement</nciodm:PreferredTerm>
        </EnumeratedItem>
        <EnumeratedItem CodedValue="Malignant Cells, NOS/Blood Cells" nciodm:ExtCodeID="C74643">
          <nciodm:CDISCSynonym>Malignant Cells, NOS/Blood Cells</nciodm:CDISCSynonym>
          <nciodm:CDISCDefinition>A relative measurement (ratio or percentage) of the malignant cells of all types to all blood cells in a biological specimen.</nciodm:CDISCDefinition>
          <nciodm:PreferredTerm>Malignant Cell to Blood Cell Ratio Measurement</nciodm:PreferredTerm>
        </EnumeratedItem>
        <EnumeratedItem CodedValue="Metamyelocytes/Leukocytes" nciodm:ExtCodeID="C74645">
          <nciodm:CDISCSynonym>Metamyelocytes/Leukocytes</nciodm:CDISCSynonym>
          <nciodm:CDISCDefinition>A relative measurement (ratio or percentage) of the metamyelocytes (small, myelocytic neutrophils with an indented nucleus) to all leukocytes in a biological specimen.</nciodm:CDISCDefinition>
          <nciodm:PreferredTerm>Metamyelocyte to Leukocyte Ratio Measurement</nciodm:PreferredTerm>
        </EnumeratedItem>
        <EnumeratedItem CodedValue="Monoblasts/Leukocytes" nciodm:ExtCodeID="C74646">
          <nciodm:CDISCSynonym>Monoblasts/Leukocytes</nciodm:CDISCSynonym>
          <nciodm:CDISCDefinition>A relative measurement (ratio or percentage) of the monoblasts to leukocytes in a biological specimen.</nciodm:CDISCDefinition>
          <nciodm:PreferredTerm>Monoblast to Leukocyte Ratio Measurement</nciodm:PreferredTerm>
        </EnumeratedItem>
        <EnumeratedItem CodedValue="Nucleated Erythrocytes/Erythrocytes" nciodm:ExtCodeID="C74647">
          <nciodm:CDISCSynonym>Nucleated Erythrocytes/Erythrocytes</nciodm:CDISCSynonym>
          <nciodm:CDISCSynonym>Nucleated Red Blood Cells/Erythrocytes</nciodm:CDISCSynonym>
          <nciodm:CDISCDefinition>A relative measurement (ratio or percentage) of the nucleated erythrocytes (large, immature nucleated erythrocytes) to all erythrocytes in a biological specimen.</nciodm:CDISCDefinition>
          <nciodm:PreferredTerm>Nucleated Red Blood Cell to Erythrocyte Ratio Measurement</nciodm:PreferredTerm>
        </EnumeratedItem>
        <EnumeratedItem CodedValue="Plasmacytoid Lymphocytes/Lymphocytes" nciodm:ExtCodeID="C74648">
          <nciodm:CDISCSynonym>Plasmacytoid Lymphocytes/Lymphocytes</nciodm:CDISCSynonym>
          <nciodm:CDISCDefinition>A relative measurement (ratio or percentage) of the plasmacytoid lymphocytes (lymphocytes with peripherally clumped chromatin and often deep blue cytoplasm, and that appear similar to plasma cells) to all lymphocytes in a biological specimen.</nciodm:CDISCDefinition>
          <nciodm:PreferredTerm>Plasmacytoid Lymphocyte to Lymphocyte Ratio Measurement</nciodm:PreferredTerm>
        </EnumeratedItem>
        <EnumeratedItem CodedValue="Poikilocytes/Erythrocytes" nciodm:ExtCodeID="C74649">
          <nciodm:CDISCSynonym>Poikilocytes/Erythrocytes</nciodm:CDISCSynonym>
          <nciodm:CDISCDefinition>A relative measurement (ratio or percentage) of the poikilocytes, or irregularly shaped erythrocytes, to all erythrocytes in a biological specimen.</nciodm:CDISCDefinition>
          <nciodm:PreferredTerm>Poikilocyte to Erythrocyte Ratio Measurement</nciodm:PreferredTerm>
        </EnumeratedItem>
        <EnumeratedItem CodedValue="Precursor Plasma Cells/Lymphocytes" nciodm:ExtCodeID="C74650">
          <nciodm:CDISCSynonym>Precursor Plasma Cells/Lymphocytes</nciodm:CDISCSynonym>
          <nciodm:CDISCDefinition>A relative measurement (ratio or percentage) of the precursor (blast stage) plasma cells (antibody secreting cells derived from B cells via antigen stimulation) to all lymphocytes in a biological specimen.</nciodm:CDISCDefinition>
          <nciodm:PreferredTerm>Precursor Plasma Cell to Lymphocyte Ratio Measurement</nciodm:PreferredTerm>
        </EnumeratedItem>
        <EnumeratedItem CodedValue="Prolymphocytes/Lymphocytes" nciodm:ExtCodeID="C74651">
          <nciodm:CDISCSynonym>Prolymphocytes/Lymphocytes</nciodm:CDISCSynonym>
          <nciodm:CDISCDefinition>A relative measurement (ratio or percentage) of the prolymphocytes to all lymphocytes in a biological specimen.</nciodm:CDISCDefinition>
          <nciodm:PreferredTerm>Prolymphocyte to Lymphocyte Ratio Measurement</nciodm:PreferredTerm>
        </EnumeratedItem>
        <EnumeratedItem CodedValue="Promonocytes/Leukocytes" nciodm:ExtCodeID="C74652">
          <nciodm:CDISCSynonym>Promonocytes/Leukocytes</nciodm:CDISCSynonym>
          <nciodm:CDISCDefinition>A relative measurement (ratio or percentage) of the promonocytes to all leukocytes in a biological specimen.</nciodm:CDISCDefinition>
          <nciodm:PreferredTerm>Promonocyte to Lymphocyte Ratio Measurement</nciodm:PreferredTerm>
        </EnumeratedItem>
        <EnumeratedItem CodedValue="Promyelocytes/Leukocytes" nciodm:ExtCodeID="C74653">
          <nciodm:CDISCSynonym>Promyelocytes/Leukocytes</nciodm:CDISCSynonym>
          <nciodm:CDISCDefinition>A relative measurement (ratio or percentage) of the promyelocytes (immature myelocytes) to all leukocytes in a biological specimen.</nciodm:CDISCDefinition>
          <nciodm:PreferredTerm>Promyelocyte to Lymphocyte Ratio Measurement</nciodm:PreferredTerm>
        </EnumeratedItem>
        <EnumeratedItem CodedValue="Reactive Lymphocytes/Lymphocytes" nciodm:ExtCodeID="C74654">
          <nciodm:CDISCSynonym>Reactive Lymphocytes/Lymphocytes</nciodm:CDISCSynonym>
          <nciodm:CDISCDefinition>A relative measurement (ratio or percentage) of the reactive lymphocytes (lymphocytes which have become large due to an antigen reaction) to all lymphocytes in a biological specimen.</nciodm:CDISCDefinition>
          <nciodm:PreferredTerm>Reactive Lymphocyte to Lymphocyte Ratio Measurement</nciodm:PreferredTerm>
        </EnumeratedItem>
        <EnumeratedItem CodedValue="Sezary Cells/Lymphocytes" nciodm:ExtCodeID="C74655">
          <nciodm:CDISCSynonym>Sezary Cells/Lymphocytes</nciodm:CDISCSynonym>
          <nciodm:CDISCDefinition>A relative measurement (ratio or percentage of the Sezary cells (atypical lymphocytes with cerebriform nuclei) to all lymphocytes in a biological specimen.</nciodm:CDISCDefinition>
          <nciodm:PreferredTerm>Sezary Cell to Lymphocyte Ratio Measurement</nciodm:PreferredTerm>
        </EnumeratedItem>
        <EnumeratedItem CodedValue="Sickle Cells/Erythrocytes" nciodm:ExtCodeID="C74656">
          <nciodm:CDISCSynonym>Sickle Cells/Erythrocytes</nciodm:CDISCSynonym>
          <nciodm:CDISCDefinition>A relative measurement (ratio or percentage) of the sickle cells (sickle shaped red blood cells) to all erythrocytes in a biological specimen.</nciodm:CDISCDefinition>
          <nciodm:PreferredTerm>Sickle Cell to Erythrocyte Ratio Measurement</nciodm:PreferredTerm>
        </EnumeratedItem>
        <EnumeratedItem CodedValue="Auer Rods" nciodm:ExtCodeID="C74657">
          <nciodm:CDISCSynonym>Auer Rods</nciodm:CDISCSynonym>
          <nciodm:CDISCDefinition>A measurement of the Auer rods (elongated needle structures that are found in the cytoplasm of leukemic blasts and are formed by clumps of azurophilic granular material) in a biological specimen.</nciodm:CDISCDefinition>
          <nciodm:PreferredTerm>Auer Rod Measurement</nciodm:PreferredTerm>
        </EnumeratedItem>
        <EnumeratedItem CodedValue="Helmet Cells" nciodm:ExtCodeID="C74658">
          <nciodm:CDISCSynonym>Helmet Cells</nciodm:CDISCSynonym>
          <nciodm:CDISCDefinition>A measurement of the Helmet cells (specialized Keratocytes with two projections on either end that are tapered and hornlike) in a biological specimen.</nciodm:CDISCDefinition>
          <nciodm:PreferredTerm>Helmet Cell Count</nciodm:PreferredTerm>
        </EnumeratedItem>
        <EnumeratedItem CodedValue="Large Unstained Cells" nciodm:ExtCodeID="C74659">
          <nciodm:CDISCSynonym>Large Unstained Cells</nciodm:CDISCSynonym>
          <nciodm:CDISCDefinition>A measurement of the large, peroxidase-negative cells which cannot be further characterized (i.e. as large lymphocytes, virocytes, or stem cells) present in a biological specimen.</nciodm:CDISCDefinition>
          <nciodm:PreferredTerm>Large Unstained Cell Count</nciodm:PreferredTerm>
        </EnumeratedItem>
        <EnumeratedItem CodedValue="Malignant Cells, NOS" nciodm:ExtCodeID="C74660">
          <nciodm:CDISCSynonym>Malignant Cells, NOS</nciodm:CDISCSynonym>
          <nciodm:CDISCDefinition>A measurement of the malignant cells of all types in a biological specimen.</nciodm:CDISCDefinition>
          <nciodm:PreferredTerm>Malignant Cell Count</nciodm:PreferredTerm>
        </EnumeratedItem>
        <EnumeratedItem CodedValue="Mature Plasma Cells" nciodm:ExtCodeID="C74661">
          <nciodm:CDISCSynonym>Mature Plasma Cells</nciodm:CDISCSynonym>
          <nciodm:CDISCSynonym>Plasmacytes</nciodm:CDISCSynonym>
          <nciodm:CDISCDefinition>A measurement of the mature plasma cells (plasmacytes) in a biological specimen.</nciodm:CDISCDefinition>
          <nciodm:PreferredTerm>Mature Plasma Cell Count</nciodm:PreferredTerm>
        </EnumeratedItem>
        <EnumeratedItem CodedValue="Myelocytes" nciodm:ExtCodeID="C74662">
          <nciodm:CDISCSynonym>Myelocytes</nciodm:CDISCSynonym>
          <nciodm:CDISCDefinition>A measurement of the myelocytes in a biological specimen.</nciodm:CDISCDefinition>
          <nciodm:PreferredTerm>Myelocyte Count</nciodm:PreferredTerm>
        </EnumeratedItem>
        <EnumeratedItem CodedValue="Spermatozoa" nciodm:ExtCodeID="C74663">
          <nciodm:CDISCSynonym>Spermatozoa</nciodm:CDISCSynonym>
          <nciodm:CDISCDefinition>A measurement of the spermatozoa cells present in a biological specimen.</nciodm:CDISCDefinition>
          <nciodm:PreferredTerm>Spermatozoa Cell Count</nciodm:PreferredTerm>
        </EnumeratedItem>
        <EnumeratedItem CodedValue="Yeast Cells" nciodm:ExtCodeID="C74664">
          <nciodm:CDISCSynonym>Yeast Cells</nciodm:CDISCSynonym>
          <nciodm:CDISCDefinition>A measurement of the yeast cells present in a biological specimen.</nciodm:CDISCDefinition>
          <nciodm:PreferredTerm>Yeast Cell Measurement</nciodm:PreferredTerm>
        </EnumeratedItem>
        <EnumeratedItem CodedValue="Amorphous Crystals" nciodm:ExtCodeID="C74665">
          <nciodm:CDISCSynonym>Amorphous Crystals</nciodm:CDISCSynonym>
          <nciodm:CDISCDefinition>A measurement of the amorphous (Note: phosphate or urate, depending on pH) crystals present in a biological specimen.</nciodm:CDISCDefinition>
          <nciodm:PreferredTerm>Amorphous Crystal Measurement</nciodm:PreferredTerm>
        </EnumeratedItem>
        <EnumeratedItem CodedValue="Amorphous Sediment" nciodm:ExtCodeID="C74666">
          <nciodm:CDISCSynonym>Amorphous Sediment</nciodm:CDISCSynonym>
          <nciodm:CDISCSynonym>Amorphous Debris</nciodm:CDISCSynonym>
          <nciodm:CDISCDefinition>A measurement of the amorphous sediment present in a biological specimen.</nciodm:CDISCDefinition>
          <nciodm:PreferredTerm>Amorphous Sediment Measurement</nciodm:PreferredTerm>
        </EnumeratedItem>
        <EnumeratedItem CodedValue="Bicarbonate" nciodm:ExtCodeID="C74667">
          <nciodm:CDISCSynonym>Bicarbonate</nciodm:CDISCSynonym>
          <nciodm:CDISCSynonym>HCO3</nciodm:CDISCSynonym>
          <nciodm:CDISCDefinition>A measurement of the bicarbonate in a biological specimen.</nciodm:CDISCDefinition>
          <nciodm:PreferredTerm>Bicarbonate Measurement</nciodm:PreferredTerm>
        </EnumeratedItem>
        <EnumeratedItem CodedValue="Bilirubin Crystals" nciodm:ExtCodeID="C74668">
          <nciodm:CDISCSynonym>Bilirubin Crystals</nciodm:CDISCSynonym>
          <nciodm:CDISCDefinition>A measurement of the bilirubin crystals present in a biological specimen.</nciodm:CDISCDefinition>
          <nciodm:PreferredTerm>Bilirubin Crystal Measurement</nciodm:PreferredTerm>
        </EnumeratedItem>
        <EnumeratedItem CodedValue="Calcium Carbonate Crystals" nciodm:ExtCodeID="C74669">
          <nciodm:CDISCSynonym>Calcium Carbonate Crystals</nciodm:CDISCSynonym>
          <nciodm:CDISCDefinition>A measurement of the calcium carbonate crystals present in a biological specimen.</nciodm:CDISCDefinition>
          <nciodm:PreferredTerm>Calcium Carbonate Crystal Measurement</nciodm:PreferredTerm>
        </EnumeratedItem>
        <EnumeratedItem CodedValue="Calcium Oxalate Crystals" nciodm:ExtCodeID="C74670">
          <nciodm:CDISCSynonym>Calcium Oxalate Crystals</nciodm:CDISCSynonym>
          <nciodm:CDISCDefinition>A measurement of the calcium oxalate crystals present in a biological specimen.</nciodm:CDISCDefinition>
          <nciodm:PreferredTerm>Calcium Oxalate Crystal Measurement</nciodm:PreferredTerm>
        </EnumeratedItem>
        <EnumeratedItem CodedValue="Calcium Phosphate Crystals" nciodm:ExtCodeID="C74671">
          <nciodm:CDISCSynonym>Calcium Phosphate Crystals</nciodm:CDISCSynonym>
          <nciodm:CDISCDefinition>A measurement of the calcium phosphate crystals present in a biological specimen.</nciodm:CDISCDefinition>
          <nciodm:PreferredTerm>Calcium Phosphate Crystal Measurement</nciodm:PreferredTerm>
        </EnumeratedItem>
        <EnumeratedItem CodedValue="Cholesterol Crystals" nciodm:ExtCodeID="C74672">
          <nciodm:CDISCSynonym>Cholesterol Crystals</nciodm:CDISCSynonym>
          <nciodm:CDISCDefinition>A measurement of the cholesterol crystals present in a biological specimen.</nciodm:CDISCDefinition>
          <nciodm:PreferredTerm>Cholesterol Crystal Measurement</nciodm:PreferredTerm>
        </EnumeratedItem>
        <EnumeratedItem CodedValue="Crystals" nciodm:ExtCodeID="C74673">
          <nciodm:CDISCSynonym>Crystals</nciodm:CDISCSynonym>
          <nciodm:CDISCDefinition>A statement that indicates crystals were looked for and not found in a biological specimen.</nciodm:CDISCDefinition>
          <nciodm:PreferredTerm>Crystal Present Or Absent</nciodm:PreferredTerm>
        </EnumeratedItem>
        <EnumeratedItem CodedValue="Cystine Crystals" nciodm:ExtCodeID="C74674">
          <nciodm:CDISCSynonym>Cystine Crystals</nciodm:CDISCSynonym>
          <nciodm:CDISCDefinition>A measurement of the cystine crystals present in a biological specimen.</nciodm:CDISCDefinition>
          <nciodm:PreferredTerm>Cystine Crystal Measurement</nciodm:PreferredTerm>
        </EnumeratedItem>
        <EnumeratedItem CodedValue="Vitamin B9" nciodm:ExtCodeID="C74676">
          <nciodm:CDISCSynonym>Folic Acid</nciodm:CDISCSynonym>
          <nciodm:CDISCSynonym>Vitamin B9</nciodm:CDISCSynonym>
          <nciodm:CDISCDefinition>A measurement of the folic acid in a biological specimen.</nciodm:CDISCDefinition>
          <nciodm:PreferredTerm>Folic Acid Measurement</nciodm:PreferredTerm>
        </EnumeratedItem>
        <EnumeratedItem CodedValue="Carnitine, Free" nciodm:ExtCodeID="C74677">
          <nciodm:CDISCSynonym>Carnitine, Free</nciodm:CDISCSynonym>
          <nciodm:CDISCDefinition>A measurement of the free carnitine in a biological specimen.</nciodm:CDISCDefinition>
          <nciodm:PreferredTerm>Free Carnitine Measurement</nciodm:PreferredTerm>
        </EnumeratedItem>
        <EnumeratedItem CodedValue="Fructosamine" nciodm:ExtCodeID="C74678">
          <nciodm:CDISCSynonym>Fructosamine</nciodm:CDISCSynonym>
          <nciodm:CDISCSynonym>Glycated Serum Protein</nciodm:CDISCSynonym>
          <nciodm:CDISCDefinition>A measurement of the fructosamine in a biological specimen.</nciodm:CDISCDefinition>
          <nciodm:PreferredTerm>Fructosamine Measurement</nciodm:PreferredTerm>
        </EnumeratedItem>
        <EnumeratedItem CodedValue="Iron" nciodm:ExtCodeID="C74679">
          <nciodm:CDISCSynonym>Iron</nciodm:CDISCSynonym>
          <nciodm:CDISCSynonym>FE</nciodm:CDISCSynonym>
          <nciodm:CDISCDefinition>A measurement of the iron in a biological specimen.</nciodm:CDISCDefinition>
          <nciodm:PreferredTerm>Iron Measurement</nciodm:PreferredTerm>
        </EnumeratedItem>
        <EnumeratedItem CodedValue="Leucine Crystals" nciodm:ExtCodeID="C74680">
          <nciodm:CDISCSynonym>Leucine Crystals</nciodm:CDISCSynonym>
          <nciodm:CDISCDefinition>A measurement of the leucine crystals present in a biological specimen.</nciodm:CDISCDefinition>
          <nciodm:PreferredTerm>Leucine Crystal Measurement</nciodm:PreferredTerm>
        </EnumeratedItem>
        <EnumeratedItem CodedValue="Monosodium Urate Crystals" nciodm:ExtCodeID="C74681">
          <nciodm:CDISCSynonym>Monosodium Urate Crystals</nciodm:CDISCSynonym>
          <nciodm:CDISCDefinition>A measurement of the monosodium urate crystals present in a biological specimen.</nciodm:CDISCDefinition>
          <nciodm:PreferredTerm>Monosodium Urate Crystal Measurement</nciodm:PreferredTerm>
        </EnumeratedItem>
        <EnumeratedItem CodedValue="Carnitine" nciodm:ExtCodeID="C74682">
          <nciodm:CDISCSynonym>Carnitine</nciodm:CDISCSynonym>
          <nciodm:CDISCDefinition>A measurement of the total carnitine in a biological specimen.</nciodm:CDISCDefinition>
          <nciodm:PreferredTerm>Total Carnitine Measurement</nciodm:PreferredTerm>
        </EnumeratedItem>
        <EnumeratedItem CodedValue="Tyrosine Crystals" nciodm:ExtCodeID="C74683">
          <nciodm:CDISCSynonym>Tyrosine Crystals</nciodm:CDISCSynonym>
          <nciodm:CDISCDefinition>A measurement of the triple phosphate crystals present in a biological specimen.</nciodm:CDISCDefinition>
          <nciodm:PreferredTerm>Tyrosine Crystal Measurement</nciodm:PreferredTerm>
        </EnumeratedItem>
        <EnumeratedItem CodedValue="Uric Acid Crystals" nciodm:ExtCodeID="C74684">
          <nciodm:CDISCSynonym>Uric Acid Crystals</nciodm:CDISCSynonym>
          <nciodm:CDISCDefinition>A measurement of the uric acid crystals present in a biological specimen.</nciodm:CDISCDefinition>
          <nciodm:PreferredTerm>Uric Acid Crystal Measurement</nciodm:PreferredTerm>
        </EnumeratedItem>
        <EnumeratedItem CodedValue="Anion Gap" nciodm:ExtCodeID="C74685">
          <nciodm:CDISCSynonym>Anion Gap</nciodm:CDISCSynonym>
          <nciodm:CDISCDefinition>A computed estimate of the unmeasured anions (those other than the chloride and bicarbonate anions) in a biological specimen.</nciodm:CDISCDefinition>
          <nciodm:PreferredTerm>Anion Gap Measurement</nciodm:PreferredTerm>
        </EnumeratedItem>
        <EnumeratedItem CodedValue="Occult Blood" nciodm:ExtCodeID="C74686">
          <nciodm:CDISCSynonym>Occult Blood</nciodm:CDISCSynonym>
          <nciodm:CDISCDefinition>A measurement of the blood in body products such as a stool sample, not detectable on gross examination.</nciodm:CDISCDefinition>
          <nciodm:PreferredTerm>Occult Blood Measurement</nciodm:PreferredTerm>
        </EnumeratedItem>
        <EnumeratedItem CodedValue="Amphetamine" nciodm:ExtCodeID="C74687">
          <nciodm:CDISCSynonym>Amphetamine</nciodm:CDISCSynonym>
          <nciodm:CDISCDefinition>A measurement of any amphetamine class drug present in a biological specimen.</nciodm:CDISCDefinition>
          <nciodm:PreferredTerm>Amphetamine Drug Class Measurement</nciodm:PreferredTerm>
        </EnumeratedItem>
        <EnumeratedItem CodedValue="Barbiturates" nciodm:ExtCodeID="C74688">
          <nciodm:CDISCSynonym>Barbiturates</nciodm:CDISCSynonym>
          <nciodm:CDISCDefinition>A measurement of any barbiturate class drug present in a biological specimen.</nciodm:CDISCDefinition>
          <nciodm:PreferredTerm>Barbiturate Drug Class Measurement</nciodm:PreferredTerm>
        </EnumeratedItem>
        <EnumeratedItem CodedValue="Cannabinoids" nciodm:ExtCodeID="C74689">
          <nciodm:CDISCSynonym>Cannabinoids</nciodm:CDISCSynonym>
          <nciodm:CDISCDefinition>A measurement of any cannabinoid class drug present in a biological specimen.</nciodm:CDISCDefinition>
          <nciodm:PreferredTerm>Cannabinoid Drug Class Measurement</nciodm:PreferredTerm>
        </EnumeratedItem>
        <EnumeratedItem CodedValue="Cocaine" nciodm:ExtCodeID="C74690">
          <nciodm:CDISCSynonym>Cocaine</nciodm:CDISCSynonym>
          <nciodm:CDISCDefinition>A measurement of the cocaine present in a biological specimen.</nciodm:CDISCDefinition>
          <nciodm:PreferredTerm>Cocaine Measurement</nciodm:PreferredTerm>
        </EnumeratedItem>
        <EnumeratedItem CodedValue="Round Epithelial Cells" nciodm:ExtCodeID="C74698">
          <nciodm:CDISCSynonym>Round Epithelial Cells</nciodm:CDISCSynonym>
          <nciodm:CDISCDefinition>A measurement of the round epithelial cells present in a urine specimen.</nciodm:CDISCDefinition>
          <nciodm:PreferredTerm>Round Epithelial Cell Count</nciodm:PreferredTerm>
        </EnumeratedItem>
        <EnumeratedItem CodedValue="Acanthocytes" nciodm:ExtCodeID="C74699">
          <nciodm:CDISCSynonym>Acanthocytes</nciodm:CDISCSynonym>
          <nciodm:CDISCDefinition>A measurement of the acanthocytes in a biological specimen.</nciodm:CDISCDefinition>
          <nciodm:PreferredTerm>Acanthocyte Count</nciodm:PreferredTerm>
        </EnumeratedItem>
        <EnumeratedItem CodedValue="Bite Cells" nciodm:ExtCodeID="C74700">
          <nciodm:CDISCSynonym>Bite Cells</nciodm:CDISCSynonym>
          <nciodm:CDISCDefinition>A measurement of the bite cells (erythrocytes with the appearance of a bite having been removed, due to oxidative hemolysis) in a biological specimen .</nciodm:CDISCDefinition>
          <nciodm:PreferredTerm>Bite Cell Count</nciodm:PreferredTerm>
        </EnumeratedItem>
        <EnumeratedItem CodedValue="Burr Cells" nciodm:ExtCodeID="C74701">
          <nciodm:CDISCSynonym>Burr Cells</nciodm:CDISCSynonym>
          <nciodm:CDISCSynonym>Keratocytes</nciodm:CDISCSynonym>
          <nciodm:CDISCDefinition>A measurement of the Burr cells (erythrocytes characterized by the presence of small, blunt projections evenly distributed across the cell surface) in a biological specimen.</nciodm:CDISCDefinition>
          <nciodm:PreferredTerm>Burr Cell Count</nciodm:PreferredTerm>
        </EnumeratedItem>
        <EnumeratedItem CodedValue="Cabot Rings" nciodm:ExtCodeID="C74702">
          <nciodm:CDISCSynonym>Cabot Rings</nciodm:CDISCSynonym>
          <nciodm:CDISCDefinition>A measurement of the Cabot rings (red-purple staining, threadlike, ring or figure 8 shaped filaments in an erythrocyte) in a biological specimen.</nciodm:CDISCDefinition>
          <nciodm:PreferredTerm>Cabot Ring Count</nciodm:PreferredTerm>
        </EnumeratedItem>
        <EnumeratedItem CodedValue="Crenated Cells" nciodm:ExtCodeID="C74703">
          <nciodm:CDISCSynonym>Crenated Cells</nciodm:CDISCSynonym>
          <nciodm:CDISCSynonym>Echinocytes</nciodm:CDISCSynonym>
          <nciodm:CDISCDefinition>A measurement of the Burr cells (erythrocytes characterized by the presence of multiple small, sharp projections evenly distributed across the cell surface) in a biological specimen.</nciodm:CDISCDefinition>
          <nciodm:PreferredTerm>Crenated Cell Measurement</nciodm:PreferredTerm>
        </EnumeratedItem>
        <EnumeratedItem CodedValue="Howell-Jolly Bodies" nciodm:ExtCodeID="C74704">
          <nciodm:CDISCSynonym>Howell-Jolly Bodies</nciodm:CDISCSynonym>
          <nciodm:CDISCDefinition>A measurement of the Howell-Jolly bodies (spherical, blue-black condensed DNA inclusions within the body of a red blood cell that appear under Wright-stain) in a biological specimen.</nciodm:CDISCDefinition>
          <nciodm:PreferredTerm>Howell-Jolly Body Measurement</nciodm:PreferredTerm>
        </EnumeratedItem>
        <EnumeratedItem CodedValue="Nucleated Erythrocytes" nciodm:ExtCodeID="C74705">
          <nciodm:CDISCSynonym>Nucleated Erythrocytes</nciodm:CDISCSynonym>
          <nciodm:CDISCSynonym>Nucleated Red Blood Cells</nciodm:CDISCSynonym>
          <nciodm:CDISCDefinition>A measurement of the nucleated erythrocytes (large, immature nucleated erythrocytes) in a biological specimen.</nciodm:CDISCDefinition>
          <nciodm:PreferredTerm>Nucleated Red Blood Cell Count</nciodm:PreferredTerm>
        </EnumeratedItem>
        <EnumeratedItem CodedValue="Schistocytes" nciodm:ExtCodeID="C74706">
          <nciodm:CDISCSynonym>Schistocytes</nciodm:CDISCSynonym>
          <nciodm:CDISCDefinition>A measurement of the schistocytes (fragmented red blood cells) in a biological specimen.</nciodm:CDISCDefinition>
          <nciodm:PreferredTerm>Schistocyte Count</nciodm:PreferredTerm>
        </EnumeratedItem>
        <EnumeratedItem CodedValue="Spherocytes" nciodm:ExtCodeID="C74707">
          <nciodm:CDISCSynonym>Spherocytes</nciodm:CDISCSynonym>
          <nciodm:CDISCDefinition>A measurement of the spherocytes (small, sphere-shaped red blood cells) in a biological specimen.</nciodm:CDISCDefinition>
          <nciodm:PreferredTerm>Spherocyte Count</nciodm:PreferredTerm>
        </EnumeratedItem>
        <EnumeratedItem CodedValue="Stomatocytes" nciodm:ExtCodeID="C74708">
          <nciodm:CDISCSynonym>Stomatocytes</nciodm:CDISCSynonym>
          <nciodm:CDISCDefinition>A measurement of the stomatocytes (red blood cells with an oval or rectangular area of central pallor, producing the appearance of a cell mouth) in a biological specimen.</nciodm:CDISCDefinition>
          <nciodm:PreferredTerm>Stomatocyte Count</nciodm:PreferredTerm>
        </EnumeratedItem>
        <EnumeratedItem CodedValue="Heinz Bodies" nciodm:ExtCodeID="C74709">
          <nciodm:CDISCSynonym>Heinz Bodies</nciodm:CDISCSynonym>
          <nciodm:CDISCSynonym>Heinz-Erhlich Bodies</nciodm:CDISCSynonym>
          <nciodm:CDISCDefinition>A measurement of the Heinz bodies (small round inclusions within the body of a red blood cell) in a biological specimen.</nciodm:CDISCDefinition>
          <nciodm:PreferredTerm>Heinz-Ehrlich Body Measurement</nciodm:PreferredTerm>
        </EnumeratedItem>
        <EnumeratedItem CodedValue="Hepatitis A Virus Antibody" nciodm:ExtCodeID="C92534">
          <nciodm:CDISCSynonym>Hepatitis A Virus Antibody</nciodm:CDISCSynonym>
          <nciodm:CDISCDefinition>A measurement of the antibody reaction of a biological specimen to the Hepatitis A virus.</nciodm:CDISCDefinition>
          <nciodm:PreferredTerm>Hepatitis A Antibody Measurement</nciodm:PreferredTerm>
        </EnumeratedItem>
        <EnumeratedItem CodedValue="Hepatitis B Virus Surface Antibody" nciodm:ExtCodeID="C74711">
          <nciodm:CDISCSynonym>Hepatitis B Virus Surface Antibody</nciodm:CDISCSynonym>
          <nciodm:CDISCDefinition>A measurement of the surface antibody reaction of a biological specimen to the Hepatitis B virus.</nciodm:CDISCDefinition>
          <nciodm:PreferredTerm>Hepatitis B Surface Antibody Measurement</nciodm:PreferredTerm>
        </EnumeratedItem>
        <EnumeratedItem CodedValue="Hepatitis C Virus Antibody" nciodm:ExtCodeID="C92535">
          <nciodm:CDISCSynonym>Hepatitis C Virus Antibody</nciodm:CDISCSynonym>
          <nciodm:CDISCDefinition>A measurement of the antibody reaction of a biological specimen to the Hepatitis C virus.</nciodm:CDISCDefinition>
          <nciodm:PreferredTerm>Hepatitis C Antibody Measurement</nciodm:PreferredTerm>
        </EnumeratedItem>
        <EnumeratedItem CodedValue="HIV-1 Antibody" nciodm:ExtCodeID="C74713">
          <nciodm:CDISCSynonym>HIV-1 Antibody</nciodm:CDISCSynonym>
          <nciodm:CDISCDefinition>A measurement of the antibody reaction of a biological specimen to the HIV-1 virus.</nciodm:CDISCDefinition>
          <nciodm:PreferredTerm>HIV-1 Antibody Measurement</nciodm:PreferredTerm>
        </EnumeratedItem>
        <EnumeratedItem CodedValue="HIV-1/2 Antibody" nciodm:ExtCodeID="C74714">
          <nciodm:CDISCSynonym>HIV-1/2 Antibody</nciodm:CDISCSynonym>
          <nciodm:CDISCDefinition>A measurement of the antibody reaction of a biological specimen to the either the HIV-1 or HIV-2 virus.</nciodm:CDISCDefinition>
          <nciodm:PreferredTerm>HIV-1 HIV-2 Antibody Measurement</nciodm:PreferredTerm>
        </EnumeratedItem>
        <EnumeratedItem CodedValue="HIV-2 Antibody" nciodm:ExtCodeID="C74715">
          <nciodm:CDISCSynonym>HIV-2 Antibody</nciodm:CDISCSynonym>
          <nciodm:CDISCDefinition>A measurement of the antibody reaction of a biological specimen to the HIV-2 virus.</nciodm:CDISCDefinition>
          <nciodm:PreferredTerm>HIV-2 Antibody Measurement</nciodm:PreferredTerm>
        </EnumeratedItem>
        <EnumeratedItem CodedValue="Rapid Plasma Reagin" nciodm:ExtCodeID="C74716">
          <nciodm:CDISCSynonym>Rapid Plasma Reagin</nciodm:CDISCSynonym>
          <nciodm:CDISCDefinition>A measurement of the antibodies produced by cellular damage caused by Treponema pallidum (syphilis) in a biological specimen.</nciodm:CDISCDefinition>
          <nciodm:PreferredTerm>Rapid Plasma Reagin Measurement</nciodm:PreferredTerm>
        </EnumeratedItem>
        <EnumeratedItem CodedValue="Rheumatoid Factor" nciodm:ExtCodeID="C74717">
          <nciodm:CDISCSynonym>Rheumatoid Factor</nciodm:CDISCSynonym>
          <nciodm:CDISCDefinition>A measurement of the rheumatoid factor antibody in a biological specimen.</nciodm:CDISCDefinition>
          <nciodm:PreferredTerm>Rheumatoid Factor Measurement</nciodm:PreferredTerm>
        </EnumeratedItem>
        <EnumeratedItem CodedValue="Total Iron Binding Capacity" nciodm:ExtCodeID="C74718">
          <nciodm:CDISCSynonym>Total Iron Binding Capacity</nciodm:CDISCSynonym>
          <nciodm:CDISCDefinition>A measurement of the amount of iron needed to fully saturate the transferrin in a serum specimen.</nciodm:CDISCDefinition>
          <nciodm:PreferredTerm>Total Iron Binding Capacity</nciodm:PreferredTerm>
        </EnumeratedItem>
        <EnumeratedItem CodedValue="Unsaturated Iron Binding Capacity" nciodm:ExtCodeID="C74719">
          <nciodm:CDISCSynonym>Unsaturated Iron Binding Capacity</nciodm:CDISCSynonym>
          <nciodm:CDISCDefinition>A measurement of the binding capacity of unsaturated iron in a biological specimen.</nciodm:CDISCDefinition>
          <nciodm:PreferredTerm>Unsaturated Iron Binding Capacity Measurement</nciodm:PreferredTerm>
        </EnumeratedItem>
        <EnumeratedItem CodedValue="Mucous Threads" nciodm:ExtCodeID="C74721">
          <nciodm:CDISCSynonym>Mucous Threads</nciodm:CDISCSynonym>
          <nciodm:CDISCDefinition>A measurement of the mucous threads present in a biological specimen.</nciodm:CDISCDefinition>
          <nciodm:PreferredTerm>Mucous Thread Measurement</nciodm:PreferredTerm>
        </EnumeratedItem>
        <EnumeratedItem CodedValue="Turbidity" nciodm:ExtCodeID="C74723">
          <nciodm:CDISCSynonym>Turbidity</nciodm:CDISCSynonym>
          <nciodm:CDISCDefinition>A measurement of the opacity of a biological specimen.</nciodm:CDISCDefinition>
          <nciodm:PreferredTerm>Turbidity Measurement</nciodm:PreferredTerm>
        </EnumeratedItem>
        <EnumeratedItem CodedValue="HAV Viral Load" nciodm:ExtCodeID="C92541">
          <nciodm:CDISCSynonym>HAV Viral Load</nciodm:CDISCSynonym>
          <nciodm:CDISCDefinition>A measurement of the hepatitis A viral load in a biological specimen.</nciodm:CDISCDefinition>
          <nciodm:PreferredTerm>Hepatitis A Viral Load Measurement</nciodm:PreferredTerm>
        </EnumeratedItem>
        <EnumeratedItem CodedValue="HBV Viral Load" nciodm:ExtCodeID="C92542">
          <nciodm:CDISCSynonym>HBV Viral Load</nciodm:CDISCSynonym>
          <nciodm:CDISCDefinition>A measurement of the hepatitis B viral load in a biological specimen.</nciodm:CDISCDefinition>
          <nciodm:PreferredTerm>Hepatitis B Viral Load Measurement</nciodm:PreferredTerm>
        </EnumeratedItem>
        <EnumeratedItem CodedValue="HCV Viral Load" nciodm:ExtCodeID="C92543">
          <nciodm:CDISCSynonym>HCV Viral Load</nciodm:CDISCSynonym>
          <nciodm:CDISCDefinition>A measurement of the hepatitis C viral load in a biological specimen.</nciodm:CDISCDefinition>
          <nciodm:PreferredTerm>Hepatitis C Viral Load Measurement</nciodm:PreferredTerm>
        </EnumeratedItem>
        <EnumeratedItem CodedValue="HIV Viral Load" nciodm:ExtCodeID="C92544">
          <nciodm:CDISCSynonym>HIV Viral Load</nciodm:CDISCSynonym>
          <nciodm:CDISCDefinition>A measurement of the HIV viral load in a biological specimen.</nciodm:CDISCDefinition>
          <nciodm:PreferredTerm>HIV Viral Load Measurement</nciodm:PreferredTerm>
        </EnumeratedItem>
        <EnumeratedItem CodedValue="Giant Platelets" nciodm:ExtCodeID="C74728">
          <nciodm:CDISCSynonym>Giant Platelets</nciodm:CDISCSynonym>
          <nciodm:CDISCDefinition>A measurement of the giant (larger than 7um in diameter) platelets in a biological specimen.</nciodm:CDISCDefinition>
          <nciodm:PreferredTerm>Giant Platelet Count</nciodm:PreferredTerm>
        </EnumeratedItem>
        <EnumeratedItem CodedValue="Large Platelets" nciodm:ExtCodeID="C74729">
          <nciodm:CDISCSynonym>Large Platelets</nciodm:CDISCSynonym>
          <nciodm:CDISCDefinition>A measurement of the large (between 4 um and 7um in diameter) platelets in a biological specimen.</nciodm:CDISCDefinition>
          <nciodm:PreferredTerm>Large Platelet Count</nciodm:PreferredTerm>
        </EnumeratedItem>
        <EnumeratedItem CodedValue="Mean Platelet Volume" nciodm:ExtCodeID="C74730">
          <nciodm:CDISCSynonym>Mean Platelet Volume</nciodm:CDISCSynonym>
          <nciodm:CDISCDefinition>A measurement of the average size of the platelets present in a blood sample.</nciodm:CDISCDefinition>
          <nciodm:PreferredTerm>Mean Platelet Volume Measurement</nciodm:PreferredTerm>
        </EnumeratedItem>
        <EnumeratedItem CodedValue="Aldolase" nciodm:ExtCodeID="C74731">
          <nciodm:CDISCSynonym>Aldolase</nciodm:CDISCSynonym>
          <nciodm:CDISCDefinition>A measurement of the aldolase enzyme in a biological specimen.</nciodm:CDISCDefinition>
          <nciodm:PreferredTerm>Aldolase Measurement</nciodm:PreferredTerm>
        </EnumeratedItem>
        <EnumeratedItem CodedValue="Alpha Fetoprotein" nciodm:ExtCodeID="C74732">
          <nciodm:CDISCSynonym>Alpha Fetoprotein</nciodm:CDISCSynonym>
          <nciodm:CDISCDefinition>A measurement of the alpha fetoprotein in a biological specimen.</nciodm:CDISCDefinition>
          <nciodm:PreferredTerm>Alpha-fetoprotein Measurement</nciodm:PreferredTerm>
        </EnumeratedItem>
        <EnumeratedItem CodedValue="Apolipoprotein A1" nciodm:ExtCodeID="C74733">
          <nciodm:CDISCSynonym>Apolipoprotein A1</nciodm:CDISCSynonym>
          <nciodm:CDISCDefinition>A measurement of the apolipoprotein A1 in the high density lipoproteins of a biological specimen.</nciodm:CDISCDefinition>
          <nciodm:PreferredTerm>Apolipoprotein A1 Measurement</nciodm:PreferredTerm>
        </EnumeratedItem>
        <EnumeratedItem CodedValue="Apolipoprotein B" nciodm:ExtCodeID="C74734">
          <nciodm:CDISCSynonym>Apolipoprotein B</nciodm:CDISCSynonym>
          <nciodm:CDISCDefinition>A measurement of the apolipoprotein B in the low density lipoproteins of a biological specimen.</nciodm:CDISCDefinition>
          <nciodm:PreferredTerm>Apolipoprotein B Measurement</nciodm:PreferredTerm>
        </EnumeratedItem>
        <EnumeratedItem CodedValue="Brain Natriuretic Peptide" nciodm:ExtCodeID="C74735">
          <nciodm:CDISCSynonym>Brain Natriuretic Peptide</nciodm:CDISCSynonym>
          <nciodm:CDISCSynonym>B-Type Natriuretic Peptide</nciodm:CDISCSynonym>
          <nciodm:CDISCDefinition>A measurement of the brain (B-type) natriuretic peptide in a biological specimen.</nciodm:CDISCDefinition>
          <nciodm:PreferredTerm>Brain Natriuretic Peptide Measurement</nciodm:PreferredTerm>
        </EnumeratedItem>
        <EnumeratedItem CodedValue="C-peptide" nciodm:ExtCodeID="C74736">
          <nciodm:CDISCSynonym>C-peptide</nciodm:CDISCSynonym>
          <nciodm:CDISCDefinition>A measurement of the C (connecting) peptide of insulin in a biological specimen.</nciodm:CDISCDefinition>
          <nciodm:PreferredTerm>C-peptide Measurement</nciodm:PreferredTerm>
        </EnumeratedItem>
        <EnumeratedItem CodedValue="Ferritin" nciodm:ExtCodeID="C74737">
          <nciodm:CDISCSynonym>Ferritin</nciodm:CDISCSynonym>
          <nciodm:CDISCDefinition>A measurement of the ferritin in a biological specimen.</nciodm:CDISCDefinition>
          <nciodm:PreferredTerm>Ferritin Measurement</nciodm:PreferredTerm>
        </EnumeratedItem>
        <EnumeratedItem CodedValue="Globulin" nciodm:ExtCodeID="C74738">
          <nciodm:CDISCSynonym>Globulin</nciodm:CDISCSynonym>
          <nciodm:CDISCDefinition>A measurement of the globulin protein in a biological specimen.</nciodm:CDISCDefinition>
          <nciodm:PreferredTerm>Globulin Protein Measurement</nciodm:PreferredTerm>
        </EnumeratedItem>
        <EnumeratedItem CodedValue="Glutamate" nciodm:ExtCodeID="C74739">
          <nciodm:CDISCSynonym>Glutamate</nciodm:CDISCSynonym>
          <nciodm:CDISCSynonym>Glutamic Acid</nciodm:CDISCSynonym>
          <nciodm:CDISCDefinition>A measurement of the glutamate in a biological specimen.</nciodm:CDISCDefinition>
          <nciodm:PreferredTerm>Glutamate Measurement</nciodm:PreferredTerm>
        </EnumeratedItem>
        <EnumeratedItem CodedValue="Haptoglobin" nciodm:ExtCodeID="C74740">
          <nciodm:CDISCSynonym>Haptoglobin</nciodm:CDISCSynonym>
          <nciodm:CDISCDefinition>A measurement of the haptoglobin protein in a biological specimen.</nciodm:CDISCDefinition>
          <nciodm:PreferredTerm>Haptoglobin Protein Measurement</nciodm:PreferredTerm>
        </EnumeratedItem>
        <EnumeratedItem CodedValue="Homocysteine" nciodm:ExtCodeID="C74741">
          <nciodm:CDISCSynonym>Homocysteine</nciodm:CDISCSynonym>
          <nciodm:CDISCDefinition>A measurement of the homocysteine amino acid in a biological specimen.</nciodm:CDISCDefinition>
          <nciodm:PreferredTerm>Homocysteine Acid Measurement</nciodm:PreferredTerm>
        </EnumeratedItem>
        <EnumeratedItem CodedValue="N-telopeptide" nciodm:ExtCodeID="C74743">
          <nciodm:CDISCSynonym>N-telopeptide</nciodm:CDISCSynonym>
          <nciodm:CDISCDefinition>A measurement of the N-telopeptide in a biological specimen.</nciodm:CDISCDefinition>
          <nciodm:PreferredTerm>N-telopeptide Measurement</nciodm:PreferredTerm>
        </EnumeratedItem>
        <EnumeratedItem CodedValue="Osteocalcin" nciodm:ExtCodeID="C74744">
          <nciodm:CDISCSynonym>Osteocalcin</nciodm:CDISCSynonym>
          <nciodm:CDISCDefinition>A measurement of the osteocalcin in a biological specimen.</nciodm:CDISCDefinition>
          <nciodm:PreferredTerm>Osteocalcin Measurement</nciodm:PreferredTerm>
        </EnumeratedItem>
        <EnumeratedItem CodedValue="Sex Hormone Binding Globulin" nciodm:ExtCodeID="C74745">
          <nciodm:CDISCSynonym>Sex Hormone Binding Globulin</nciodm:CDISCSynonym>
          <nciodm:CDISCSynonym>Sex Hormone Binding Protein</nciodm:CDISCSynonym>
          <nciodm:CDISCDefinition>A measurement of the sex hormone binding (globulin) protein in a biological specimen.</nciodm:CDISCDefinition>
          <nciodm:PreferredTerm>Sex Hormone Binding Protein Measurement</nciodm:PreferredTerm>
        </EnumeratedItem>
        <EnumeratedItem CodedValue="Thyroxine Binding Globulin" nciodm:ExtCodeID="C74746">
          <nciodm:CDISCSynonym>Thyroxine Binding Globulin</nciodm:CDISCSynonym>
          <nciodm:CDISCDefinition>A measurement of the thyroxine binding globulin protein in a biological specimen.</nciodm:CDISCDefinition>
          <nciodm:PreferredTerm>Thyroxine Binding Globulin Protein Measurement</nciodm:PreferredTerm>
        </EnumeratedItem>
        <EnumeratedItem CodedValue="Triiodothyronine" nciodm:ExtCodeID="C74747">
          <nciodm:CDISCSynonym>Triiodothyronine</nciodm:CDISCSynonym>
          <nciodm:CDISCSynonym>Total T3</nciodm:CDISCSynonym>
          <nciodm:CDISCDefinition>A measurement of the total (free and bound) triiodothyronine in a biological specimen.</nciodm:CDISCDefinition>
          <nciodm:PreferredTerm>Triiodothyronine Measurement</nciodm:PreferredTerm>
        </EnumeratedItem>
        <EnumeratedItem CodedValue="Triiodothyronine Uptake" nciodm:ExtCodeID="C74748">
          <nciodm:CDISCSynonym>Triiodothyronine Uptake</nciodm:CDISCSynonym>
          <nciodm:CDISCDefinition>A measurement of the binding of triiodothyonine to thyroxine binding globulin protein in a biological specimen.</nciodm:CDISCDefinition>
          <nciodm:PreferredTerm>Triiodothyronine Uptake Measurement</nciodm:PreferredTerm>
        </EnumeratedItem>
        <EnumeratedItem CodedValue="Troponin I" nciodm:ExtCodeID="C74749">
          <nciodm:CDISCSynonym>Troponin I</nciodm:CDISCSynonym>
          <nciodm:CDISCDefinition>A measurement of the actin binding troponin in a biological specimen.</nciodm:CDISCDefinition>
          <nciodm:PreferredTerm>Troponin I Measurement</nciodm:PreferredTerm>
        </EnumeratedItem>
        <EnumeratedItem CodedValue="Troponin T" nciodm:ExtCodeID="C74750">
          <nciodm:CDISCSynonym>Troponin T</nciodm:CDISCSynonym>
          <nciodm:CDISCDefinition>A measurement of the tropomyosin binding troponin in a biological specimen.</nciodm:CDISCDefinition>
          <nciodm:PreferredTerm>Troponin T Measurement</nciodm:PreferredTerm>
        </EnumeratedItem>
        <EnumeratedItem CodedValue="Tumor Necrosis Factor" nciodm:ExtCodeID="C74751">
          <nciodm:CDISCSynonym>Tumor Necrosis Factor</nciodm:CDISCSynonym>
          <nciodm:CDISCSynonym>Tumor Necrosis Factor alpha</nciodm:CDISCSynonym>
          <nciodm:CDISCDefinition>A measurement of the total tumor necrosis factor (cachexin) cytokine in a biological specimen.</nciodm:CDISCDefinition>
          <nciodm:PreferredTerm>Tumor Necrosis Factor Measurement</nciodm:PreferredTerm>
        </EnumeratedItem>
        <EnumeratedItem CodedValue="BUN/Creatinine" nciodm:ExtCodeID="C74753">
          <nciodm:CDISCSynonym>BUN/Creatinine</nciodm:CDISCSynonym>
          <nciodm:CDISCDefinition>A relative measurement (ratio or percentage) (ratio) of the blood urea nitrogen (BUN) to the creatinine in a blood specimen.</nciodm:CDISCDefinition>
          <nciodm:PreferredTerm>Blood Urea Nitrogen To Creatinine Ratio Measurement</nciodm:PreferredTerm>
        </EnumeratedItem>
        <EnumeratedItem CodedValue="Hippuric Acid Crystals" nciodm:ExtCodeID="C74754">
          <nciodm:CDISCSynonym>Hippuric Acid Crystals</nciodm:CDISCSynonym>
          <nciodm:CDISCDefinition>A measurement of the hippuric acid crystals present in a urine specimen.</nciodm:CDISCDefinition>
          <nciodm:PreferredTerm>Hippuric Acid Crystal Measurement</nciodm:PreferredTerm>
        </EnumeratedItem>
        <EnumeratedItem CodedValue="Sulfa Crystals" nciodm:ExtCodeID="C74755">
          <nciodm:CDISCSynonym>Sulfa Crystals</nciodm:CDISCSynonym>
          <nciodm:CDISCDefinition>A measurement of the sulfa crystals present in a urine specimen.</nciodm:CDISCDefinition>
          <nciodm:PreferredTerm>Sulfa Crystal Measurement</nciodm:PreferredTerm>
        </EnumeratedItem>
        <EnumeratedItem CodedValue="Triple Phosphate Crystals" nciodm:ExtCodeID="C74756">
          <nciodm:CDISCSynonym>Triple Phosphate Crystals</nciodm:CDISCSynonym>
          <nciodm:CDISCDefinition>A measurement of the triple phosphate crystals present in a urine specimen.</nciodm:CDISCDefinition>
          <nciodm:PreferredTerm>Triple Phosphate Crystal Measurement</nciodm:PreferredTerm>
        </EnumeratedItem>
        <EnumeratedItem CodedValue="Unclassified Crystals" nciodm:ExtCodeID="C74757">
          <nciodm:CDISCSynonym>Unclassified Crystals</nciodm:CDISCSynonym>
          <nciodm:CDISCDefinition>A measurement of the unclassifiable crystals present in a urine specimen.</nciodm:CDISCDefinition>
          <nciodm:PreferredTerm>Unclassified Crystal Measurement</nciodm:PreferredTerm>
        </EnumeratedItem>
        <EnumeratedItem CodedValue="Ammonium Biurate Crystals" nciodm:ExtCodeID="C74758">
          <nciodm:CDISCSynonym>Ammonium Biurate Crystals</nciodm:CDISCSynonym>
          <nciodm:CDISCDefinition>A measurement of the ammonium biurate crystals present in a biological specimen.</nciodm:CDISCDefinition>
          <nciodm:PreferredTerm>Urine Ammonium Biurate Crystal Measurement</nciodm:PreferredTerm>
        </EnumeratedItem>
        <EnumeratedItem CodedValue="Ammonium Oxalate Crystals" nciodm:ExtCodeID="C74759">
          <nciodm:CDISCSynonym>Ammonium Oxalate Crystals</nciodm:CDISCSynonym>
          <nciodm:CDISCDefinition>A measurement of the ammonium oxalate crystals present in a urine specimen.</nciodm:CDISCDefinition>
          <nciodm:PreferredTerm>Urine Ammonium Oxalate Crystal Measurement</nciodm:PreferredTerm>
        </EnumeratedItem>
        <EnumeratedItem CodedValue="Albumin/Creatinine" nciodm:ExtCodeID="C74761">
          <nciodm:CDISCSynonym>Albumin/Creatinine</nciodm:CDISCSynonym>
          <nciodm:CDISCSynonym>Microalbumin/Creatinine Ratio</nciodm:CDISCSynonym>
          <nciodm:CDISCDefinition>A relative measurement (ratio or percentage) of the albumin to the creatinine in a urine specimen.</nciodm:CDISCDefinition>
          <nciodm:PreferredTerm>Albumin To Creatinine Protein Ratio Measurement</nciodm:PreferredTerm>
        </EnumeratedItem>
        <EnumeratedItem CodedValue="Bacterial Casts" nciodm:ExtCodeID="C74762">
          <nciodm:CDISCSynonym>Bacterial Casts</nciodm:CDISCSynonym>
          <nciodm:CDISCDefinition>A measurement of the bacterial casts present in a urine specimen.</nciodm:CDISCDefinition>
          <nciodm:PreferredTerm>Bacterial Cast Measurement</nciodm:PreferredTerm>
        </EnumeratedItem>
        <EnumeratedItem CodedValue="Casts" nciodm:ExtCodeID="C74763">
          <nciodm:CDISCSynonym>Casts</nciodm:CDISCSynonym>
          <nciodm:CDISCDefinition>A statement that indicates casts were looked for and not found in a biological specimen.</nciodm:CDISCDefinition>
          <nciodm:PreferredTerm>Cast Present Or Absent</nciodm:PreferredTerm>
        </EnumeratedItem>
        <EnumeratedItem CodedValue="Cellular Casts" nciodm:ExtCodeID="C74764">
          <nciodm:CDISCSynonym>Cellular Casts</nciodm:CDISCSynonym>
          <nciodm:CDISCDefinition>A measurement of the cellular (white blood cell, red blood cell, epithelial and bacterial) casts present in a urine specimen.</nciodm:CDISCDefinition>
          <nciodm:PreferredTerm>Cellular Cast Measurement</nciodm:PreferredTerm>
        </EnumeratedItem>
        <EnumeratedItem CodedValue="Granular Coarse Casts" nciodm:ExtCodeID="C74765">
          <nciodm:CDISCSynonym>Granular Coarse Casts</nciodm:CDISCSynonym>
          <nciodm:CDISCDefinition>A measurement of the coarse granular casts present in a urine specimen.</nciodm:CDISCDefinition>
          <nciodm:PreferredTerm>Coarse Granular Cast Measurement</nciodm:PreferredTerm>
        </EnumeratedItem>
        <EnumeratedItem CodedValue="Fatty Casts" nciodm:ExtCodeID="C74766">
          <nciodm:CDISCSynonym>Fatty Casts</nciodm:CDISCSynonym>
          <nciodm:CDISCDefinition>A measurement of the fatty casts present in a urine specimen.</nciodm:CDISCDefinition>
          <nciodm:PreferredTerm>Fatty Cast Measurement</nciodm:PreferredTerm>
        </EnumeratedItem>
        <EnumeratedItem CodedValue="Granular Casts" nciodm:ExtCodeID="C74768">
          <nciodm:CDISCSynonym>Granular Casts</nciodm:CDISCSynonym>
          <nciodm:CDISCDefinition>A measurement of the granular (coarse and fine) casts present in a urine specimen.</nciodm:CDISCDefinition>
          <nciodm:PreferredTerm>Granular Cast Measurement</nciodm:PreferredTerm>
        </EnumeratedItem>
        <EnumeratedItem CodedValue="Granular Fine Casts" nciodm:ExtCodeID="C74769">
          <nciodm:CDISCSynonym>Granular Fine Casts</nciodm:CDISCSynonym>
          <nciodm:CDISCDefinition>A measurement of the fine granular casts present in a urine specimen.</nciodm:CDISCDefinition>
          <nciodm:PreferredTerm>Granular Fine Cast Measurement</nciodm:PreferredTerm>
        </EnumeratedItem>
        <EnumeratedItem CodedValue="Hyaline Casts" nciodm:ExtCodeID="C74770">
          <nciodm:CDISCSynonym>Hyaline Casts</nciodm:CDISCSynonym>
          <nciodm:CDISCDefinition>A measurement of the hyaline casts present in a urine specimen.</nciodm:CDISCDefinition>
          <nciodm:PreferredTerm>Hyaline Cast Measurement</nciodm:PreferredTerm>
        </EnumeratedItem>
        <EnumeratedItem CodedValue="Mixed Casts" nciodm:ExtCodeID="C74771">
          <nciodm:CDISCSynonym>Mixed Casts</nciodm:CDISCSynonym>
          <nciodm:CDISCDefinition>A measurement of the mixed (the cast contains a mixture of cell types) casts present in a urine specimen.</nciodm:CDISCDefinition>
          <nciodm:PreferredTerm>Mixed Cast Count</nciodm:PreferredTerm>
        </EnumeratedItem>
        <EnumeratedItem CodedValue="RBC Casts" nciodm:ExtCodeID="C74772">
          <nciodm:CDISCSynonym>RBC Casts</nciodm:CDISCSynonym>
          <nciodm:CDISCDefinition>A measurement of the red blood cell casts present in a urine specimen.</nciodm:CDISCDefinition>
          <nciodm:PreferredTerm>Red Blood Cell Cast Measurement</nciodm:PreferredTerm>
        </EnumeratedItem>
        <EnumeratedItem CodedValue="Squamous Epithelial Cells" nciodm:ExtCodeID="C74773">
          <nciodm:CDISCSynonym>Squamous Epithelial Cells</nciodm:CDISCSynonym>
          <nciodm:CDISCDefinition>A measurement of the squamous epithelial cells present in a urine specimen.</nciodm:CDISCDefinition>
          <nciodm:PreferredTerm>Squamous Epithelial Cell Count</nciodm:PreferredTerm>
        </EnumeratedItem>
        <EnumeratedItem CodedValue="Squamous Transitional Epithelial Cells" nciodm:ExtCodeID="C74774">
          <nciodm:CDISCSynonym>Squamous Transitional Epithelial Cells</nciodm:CDISCSynonym>
          <nciodm:CDISCSynonym>Epithelial Cells</nciodm:CDISCSynonym>
          <nciodm:CDISCDefinition>A measurement of the squamous transitional epithelial cells present in a urine specimen.</nciodm:CDISCDefinition>
          <nciodm:PreferredTerm>Squamous Transitional Epithelial Cell Count</nciodm:PreferredTerm>
        </EnumeratedItem>
        <EnumeratedItem CodedValue="Tubular Epithelial Cells" nciodm:ExtCodeID="C74775">
          <nciodm:CDISCSynonym>Tubular Epithelial Cells</nciodm:CDISCSynonym>
          <nciodm:CDISCSynonym>Renal Tubular Epithelial Cells</nciodm:CDISCSynonym>
          <nciodm:CDISCDefinition>A measurement of the tubular epithelial cells present in a urine specimen.</nciodm:CDISCDefinition>
          <nciodm:PreferredTerm>Tubular Epithelial Cell Count</nciodm:PreferredTerm>
        </EnumeratedItem>
        <EnumeratedItem CodedValue="Unclassified Casts" nciodm:ExtCodeID="C74776">
          <nciodm:CDISCSynonym>Unclassified Casts</nciodm:CDISCSynonym>
          <nciodm:CDISCDefinition>A measurement of the unclassifiable casts present in a urine specimen.</nciodm:CDISCDefinition>
          <nciodm:PreferredTerm>Unclassified Cast Measurement</nciodm:PreferredTerm>
        </EnumeratedItem>
        <EnumeratedItem CodedValue="Waxy Casts" nciodm:ExtCodeID="C74777">
          <nciodm:CDISCSynonym>Waxy Casts</nciodm:CDISCSynonym>
          <nciodm:CDISCDefinition>A measurement of the waxy casts present in a urine specimen.</nciodm:CDISCDefinition>
          <nciodm:PreferredTerm>Waxy Cell Cast Measurement</nciodm:PreferredTerm>
        </EnumeratedItem>
        <EnumeratedItem CodedValue="WBC Casts" nciodm:ExtCodeID="C74778">
          <nciodm:CDISCSynonym>WBC Casts</nciodm:CDISCSynonym>
          <nciodm:CDISCDefinition>A measurement of the white blood cell casts present in a urine specimen.</nciodm:CDISCDefinition>
          <nciodm:PreferredTerm>White Blood Cell Cast Measurement</nciodm:PreferredTerm>
        </EnumeratedItem>
        <EnumeratedItem CodedValue="Epithelial Casts" nciodm:ExtCodeID="C74779">
          <nciodm:CDISCSynonym>Epithelial Casts</nciodm:CDISCSynonym>
          <nciodm:CDISCDefinition>A measurement of the epithelial cell casts present in a urine specimen.</nciodm:CDISCDefinition>
          <nciodm:PreferredTerm>Epithelial-Cast Measurement</nciodm:PreferredTerm>
        </EnumeratedItem>
        <EnumeratedItem CodedValue="Adrenocorticotropic Hormone" nciodm:ExtCodeID="C74780">
          <nciodm:CDISCSynonym>Adrenocorticotropic Hormone</nciodm:CDISCSynonym>
          <nciodm:CDISCDefinition>A measurement of the adrenocorticotropic hormone in a biological specimen.</nciodm:CDISCDefinition>
          <nciodm:PreferredTerm>Adrenocorticotropic Hormone Measurement</nciodm:PreferredTerm>
        </EnumeratedItem>
        <EnumeratedItem CodedValue="Cortisol" nciodm:ExtCodeID="C74781">
          <nciodm:CDISCSynonym>Cortisol</nciodm:CDISCSynonym>
          <nciodm:CDISCSynonym>Total Cortisol</nciodm:CDISCSynonym>
          <nciodm:CDISCDefinition>A measurement of the cortisol in a biological specimen.</nciodm:CDISCDefinition>
          <nciodm:PreferredTerm>Cortisol Measurement</nciodm:PreferredTerm>
        </EnumeratedItem>
        <EnumeratedItem CodedValue="Estradiol" nciodm:ExtCodeID="C74782">
          <nciodm:CDISCSynonym>Estradiol</nciodm:CDISCSynonym>
          <nciodm:CDISCSynonym>Oestradiol</nciodm:CDISCSynonym>
          <nciodm:CDISCDefinition>A measurement of the estradiol in a biological specimen.</nciodm:CDISCDefinition>
          <nciodm:PreferredTerm>Estradiol Measurement</nciodm:PreferredTerm>
        </EnumeratedItem>
        <EnumeratedItem CodedValue="Follicle Stimulating Hormone" nciodm:ExtCodeID="C74783">
          <nciodm:CDISCSynonym>Follicle Stimulating Hormone</nciodm:CDISCSynonym>
          <nciodm:CDISCDefinition>A measurement of the follicle stimulating hormone (FSH) in a biological specimen.</nciodm:CDISCDefinition>
          <nciodm:PreferredTerm>Follicle Stimulating Hormone Measurement</nciodm:PreferredTerm>
        </EnumeratedItem>
        <EnumeratedItem CodedValue="Parathyroid Hormone, Fragmented" nciodm:ExtCodeID="C74784">
          <nciodm:CDISCSynonym>Parathyroid Hormone, Fragmented</nciodm:CDISCSynonym>
          <nciodm:CDISCDefinition>A measurement of the fragmented parathyroid hormone in a biological specimen.</nciodm:CDISCDefinition>
          <nciodm:PreferredTerm>Fragmented Parathyroid Hormone Measurement</nciodm:PreferredTerm>
        </EnumeratedItem>
        <EnumeratedItem CodedValue="Testosterone, Free" nciodm:ExtCodeID="C74785">
          <nciodm:CDISCSynonym>Testosterone, Free</nciodm:CDISCSynonym>
          <nciodm:CDISCDefinition>A measurement of the free testosterone in a biological specimen.</nciodm:CDISCDefinition>
          <nciodm:PreferredTerm>Free Testosterone Measurement</nciodm:PreferredTerm>
        </EnumeratedItem>
        <EnumeratedItem CodedValue="Thyroxine, Free" nciodm:ExtCodeID="C74786">
          <nciodm:CDISCSynonym>Thyroxine, Free</nciodm:CDISCSynonym>
          <nciodm:CDISCSynonym>Free T4</nciodm:CDISCSynonym>
          <nciodm:CDISCDefinition>A measurement of the free thyroxine in a biological specimen.</nciodm:CDISCDefinition>
          <nciodm:PreferredTerm>Free Thyroxine Measurement</nciodm:PreferredTerm>
        </EnumeratedItem>
        <EnumeratedItem CodedValue="Triiodothyronine, Free" nciodm:ExtCodeID="C74787">
          <nciodm:CDISCSynonym>Triiodothyronine, Free</nciodm:CDISCSynonym>
          <nciodm:CDISCSynonym>Free T3</nciodm:CDISCSynonym>
          <nciodm:CDISCDefinition>A measurement of the free triiodothyronine in a biological specimen.</nciodm:CDISCDefinition>
          <nciodm:PreferredTerm>Free Triiodothyronine Measurement</nciodm:PreferredTerm>
        </EnumeratedItem>
        <EnumeratedItem CodedValue="Insulin" nciodm:ExtCodeID="C74788">
          <nciodm:CDISCSynonym>Insulin</nciodm:CDISCSynonym>
          <nciodm:CDISCDefinition>A measurement of the insulin in a biological specimen.</nciodm:CDISCDefinition>
          <nciodm:PreferredTerm>Insulin Measurement</nciodm:PreferredTerm>
        </EnumeratedItem>
        <EnumeratedItem CodedValue="Parathyroid Hormone, Intact" nciodm:ExtCodeID="C74789">
          <nciodm:CDISCSynonym>Parathyroid Hormone, Intact</nciodm:CDISCSynonym>
          <nciodm:CDISCDefinition>A measurement of the intact parathyroid hormone in a biological specimen.</nciodm:CDISCDefinition>
          <nciodm:PreferredTerm>Intact Parathyroid Hormone Measurement</nciodm:PreferredTerm>
        </EnumeratedItem>
        <EnumeratedItem CodedValue="Luteinizing Hormone" nciodm:ExtCodeID="C74790">
          <nciodm:CDISCSynonym>Luteinizing Hormone</nciodm:CDISCSynonym>
          <nciodm:CDISCDefinition>A measurement of the luteinizing hormone in a biological specimen.</nciodm:CDISCDefinition>
          <nciodm:PreferredTerm>Luteinizing Hormone Measurement</nciodm:PreferredTerm>
        </EnumeratedItem>
        <EnumeratedItem CodedValue="Progesterone" nciodm:ExtCodeID="C74791">
          <nciodm:CDISCSynonym>Progesterone</nciodm:CDISCSynonym>
          <nciodm:CDISCDefinition>A measurement of the progesterone hormone in a biological specimen.</nciodm:CDISCDefinition>
          <nciodm:PreferredTerm>Progesterone Measurement</nciodm:PreferredTerm>
        </EnumeratedItem>
        <EnumeratedItem CodedValue="Somatotrophin" nciodm:ExtCodeID="C80360">
          <nciodm:CDISCSynonym>Somatotrophin</nciodm:CDISCSynonym>
          <nciodm:CDISCSynonym>Growth Hormone</nciodm:CDISCSynonym>
          <nciodm:CDISCDefinition>A measurement of the somatotrophin (growth) hormone in a biological specimen.</nciodm:CDISCDefinition>
          <nciodm:PreferredTerm>Somatotropin Measurement</nciodm:PreferredTerm>
        </EnumeratedItem>
        <EnumeratedItem CodedValue="Testosterone" nciodm:ExtCodeID="C74793">
          <nciodm:CDISCSynonym>Testosterone</nciodm:CDISCSynonym>
          <nciodm:CDISCSynonym>Total Testosterone</nciodm:CDISCSynonym>
          <nciodm:CDISCDefinition>A measurement of the total (free and bound) testosterone in a biological specimen.</nciodm:CDISCDefinition>
          <nciodm:PreferredTerm>Total Testosterone Measurement</nciodm:PreferredTerm>
        </EnumeratedItem>
        <EnumeratedItem CodedValue="Thyroxine" nciodm:ExtCodeID="C74794">
          <nciodm:CDISCSynonym>Thyroxine</nciodm:CDISCSynonym>
          <nciodm:CDISCSynonym>Total T4</nciodm:CDISCSynonym>
          <nciodm:CDISCDefinition>A measurement of the total (free and bound) thyroxine in a biological specimen.</nciodm:CDISCDefinition>
          <nciodm:PreferredTerm>Total Thyroxine Measurement</nciodm:PreferredTerm>
        </EnumeratedItem>
        <EnumeratedItem CodedValue="Opiate" nciodm:ExtCodeID="C74796">
          <nciodm:CDISCSynonym>Opiate</nciodm:CDISCSynonym>
          <nciodm:CDISCDefinition>A measurement of any opiate class drug present in a biological specimen.</nciodm:CDISCDefinition>
          <nciodm:PreferredTerm>Opiate Measurement</nciodm:PreferredTerm>
        </EnumeratedItem>
        <EnumeratedItem CodedValue="Lymphoma Cells/Lymphocytes" nciodm:ExtCodeID="C74910">
          <nciodm:CDISCSynonym>Lymphoma Cells/Lymphocytes</nciodm:CDISCSynonym>
          <nciodm:CDISCDefinition>A relative measurement (ratio or percentage) of the malignant lymphocytes to all lymphocytes in a biological specimen.</nciodm:CDISCDefinition>
          <nciodm:PreferredTerm>Lymphoma Cell to Lymphocyte Ratio Measurement</nciodm:PreferredTerm>
        </EnumeratedItem>
        <EnumeratedItem CodedValue="Mature Plasma Cells/Lymphocytes" nciodm:ExtCodeID="C74911">
          <nciodm:CDISCSynonym>Mature Plasma Cells/Lymphocytes</nciodm:CDISCSynonym>
          <nciodm:CDISCDefinition>A relative measurement (ratio or percentage) of the mature plasma cells (plasmacytes) to all lymphocytes in a biological specimen.</nciodm:CDISCDefinition>
          <nciodm:PreferredTerm>Mature Plasma Cell to Lymphocyte Ratio Measurement</nciodm:PreferredTerm>
        </EnumeratedItem>
        <EnumeratedItem CodedValue="Acid Urate Crystals" nciodm:ExtCodeID="C74912">
          <nciodm:CDISCSynonym>Acid Urate Crystals</nciodm:CDISCSynonym>
          <nciodm:CDISCDefinition>A measurement of the ammonium acid urate crystals present in a biological specimen.</nciodm:CDISCDefinition>
          <nciodm:PreferredTerm>Acid Urate Crystal Measurement</nciodm:PreferredTerm>
        </EnumeratedItem>
        <EnumeratedItem CodedValue="Anti-Double Stranded DNA" nciodm:ExtCodeID="C74913">
          <nciodm:CDISCSynonym>Anti-Double Stranded DNA</nciodm:CDISCSynonym>
          <nciodm:CDISCDefinition>A measurement of the anti-double stranded DNA antibody in a biological specimen.</nciodm:CDISCDefinition>
          <nciodm:PreferredTerm>Anti-Double Stranded DNA Measurement</nciodm:PreferredTerm>
        </EnumeratedItem>
        <EnumeratedItem CodedValue="Antinuclear Antibodies" nciodm:ExtCodeID="C74916">
          <nciodm:CDISCSynonym>Antinuclear Antibodies</nciodm:CDISCSynonym>
          <nciodm:CDISCDefinition>A measurement of the antinuclear antibodies (antibodies that attack the body's own tissue) in a biological specimen.</nciodm:CDISCDefinition>
          <nciodm:PreferredTerm>Antinuclear Antibody Measurement</nciodm:PreferredTerm>
        </EnumeratedItem>
        <EnumeratedItem CodedValue="5 Prime Nucleotidase" nciodm:ExtCodeID="C79437">
          <nciodm:CDISCSynonym>5 Prime Nucleotidase</nciodm:CDISCSynonym>
          <nciodm:CDISCSynonym>5'-Ribonucleotide Phosphohydrolase</nciodm:CDISCSynonym>
          <nciodm:CDISCDefinition>A measurement of the 5'-nucleotidase in a biological specimen.</nciodm:CDISCDefinition>
          <nciodm:PreferredTerm>5 Prime Nucleotidase Measurement</nciodm:PreferredTerm>
        </EnumeratedItem>
        <EnumeratedItem CodedValue="6-Monoacetylmorphine" nciodm:ExtCodeID="C74876">
          <nciodm:CDISCSynonym>6-Monoacetylmorphine</nciodm:CDISCSynonym>
          <nciodm:CDISCDefinition>A measurement of the 6-monoacetylmorphine present in a biological specimen.</nciodm:CDISCDefinition>
          <nciodm:PreferredTerm>6-Monoacetylmorphine Measurement</nciodm:PreferredTerm>
        </EnumeratedItem>
        <EnumeratedItem CodedValue="Acetylcholine" nciodm:ExtCodeID="C74838">
          <nciodm:CDISCSynonym>Acetylcholine</nciodm:CDISCSynonym>
          <nciodm:CDISCDefinition>A measurement of the acetylcholine hormone in a biological specimen.</nciodm:CDISCDefinition>
          <nciodm:PreferredTerm>Acetylcholine Measurement</nciodm:PreferredTerm>
        </EnumeratedItem>
        <EnumeratedItem CodedValue="Adiponectin" nciodm:ExtCodeID="C74839">
          <nciodm:CDISCSynonym>Adiponectin</nciodm:CDISCSynonym>
          <nciodm:CDISCDefinition>A measurement of the adiponectin hormone in a biological specimen.</nciodm:CDISCDefinition>
          <nciodm:PreferredTerm>Adiponectin Measurement</nciodm:PreferredTerm>
        </EnumeratedItem>
        <EnumeratedItem CodedValue="Albumin/Globulin" nciodm:ExtCodeID="C74894">
          <nciodm:CDISCSynonym>Albumin/Globulin</nciodm:CDISCSynonym>
          <nciodm:CDISCDefinition>The ratio of albumin to globulin in a blood specimen.</nciodm:CDISCDefinition>
          <nciodm:PreferredTerm>Albumin to Globulin Ratio Measurement</nciodm:PreferredTerm>
        </EnumeratedItem>
        <EnumeratedItem CodedValue="Aldosterone" nciodm:ExtCodeID="C74841">
          <nciodm:CDISCSynonym>Aldosterone</nciodm:CDISCSynonym>
          <nciodm:CDISCDefinition>A measurement of the aldosterone hormone in a biological specimen.</nciodm:CDISCDefinition>
          <nciodm:PreferredTerm>Aldosterone Measurement</nciodm:PreferredTerm>
        </EnumeratedItem>
        <EnumeratedItem CodedValue="Alkaline Phosphatase/Creatinine" nciodm:ExtCodeID="C79438">
          <nciodm:CDISCSynonym>Alkaline Phosphatase/Creatinine</nciodm:CDISCSynonym>
          <nciodm:CDISCDefinition>A relative measurement (ratio or percentage) of the alkaline phosphatase to creatinine in a biological specimen.</nciodm:CDISCDefinition>
          <nciodm:PreferredTerm>Alkaline Phosphatase to Creatinine Ratio Measurement</nciodm:PreferredTerm>
        </EnumeratedItem>
        <EnumeratedItem CodedValue="Alpha Glutathione-S-Transferase" nciodm:ExtCodeID="C79433">
          <nciodm:CDISCSynonym>Alpha Glutathione-S-Transferase</nciodm:CDISCSynonym>
          <nciodm:CDISCDefinition>A measurement of the alpha form of glutathione S-transferase in a biological specimen.</nciodm:CDISCDefinition>
          <nciodm:PreferredTerm>Alpha Glutathione-S-Transferase Measurement</nciodm:PreferredTerm>
        </EnumeratedItem>
        <EnumeratedItem CodedValue="Ammonia" nciodm:ExtCodeID="C74799">
          <nciodm:CDISCSynonym>Ammonia</nciodm:CDISCSynonym>
          <nciodm:CDISCSynonym>NH3</nciodm:CDISCSynonym>
          <nciodm:CDISCDefinition>A measurement of the ammonia in a biological specimen.</nciodm:CDISCDefinition>
          <nciodm:PreferredTerm>Ammonia Measurement</nciodm:PreferredTerm>
        </EnumeratedItem>
        <EnumeratedItem CodedValue="Androstenediol" nciodm:ExtCodeID="C74842">
          <nciodm:CDISCSynonym>Androstenediol</nciodm:CDISCSynonym>
          <nciodm:CDISCDefinition>A measurement of the androstenediol metabolite in a biological specimen.</nciodm:CDISCDefinition>
          <nciodm:PreferredTerm>Androstenediol Metabolite Measurement</nciodm:PreferredTerm>
        </EnumeratedItem>
        <EnumeratedItem CodedValue="Androstenedione" nciodm:ExtCodeID="C74843">
          <nciodm:CDISCSynonym>Androstenedione</nciodm:CDISCSynonym>
          <nciodm:CDISCSynonym>4-Androstenedione</nciodm:CDISCSynonym>
          <nciodm:CDISCDefinition>A measurement of the androstenedione hormone in a biological specimen.</nciodm:CDISCDefinition>
          <nciodm:PreferredTerm>Androstenedione Measurement</nciodm:PreferredTerm>
        </EnumeratedItem>
        <EnumeratedItem CodedValue="Angiotensin I" nciodm:ExtCodeID="C74844">
          <nciodm:CDISCSynonym>Angiotensin I</nciodm:CDISCSynonym>
          <nciodm:CDISCDefinition>A measurement of the angiotensin I hormone in a biological specimen.</nciodm:CDISCDefinition>
          <nciodm:PreferredTerm>Angiotensin I Measurement</nciodm:PreferredTerm>
        </EnumeratedItem>
        <EnumeratedItem CodedValue="Angiotensin II" nciodm:ExtCodeID="C74845">
          <nciodm:CDISCSynonym>Angiotensin II</nciodm:CDISCSynonym>
          <nciodm:CDISCDefinition>A measurement of the angiotensin II hormone in a biological specimen.</nciodm:CDISCDefinition>
          <nciodm:PreferredTerm>Angiotensin II Measurement</nciodm:PreferredTerm>
        </EnumeratedItem>
        <EnumeratedItem CodedValue="Angiotensinogen" nciodm:ExtCodeID="C74846">
          <nciodm:CDISCSynonym>Angiotensinogen</nciodm:CDISCSynonym>
          <nciodm:CDISCSynonym>Angiotensin Precursor</nciodm:CDISCSynonym>
          <nciodm:CDISCDefinition>A measurement of the angiotensinogen hormone in a biological specimen.</nciodm:CDISCDefinition>
          <nciodm:PreferredTerm>Angiotensinogen Measurement</nciodm:PreferredTerm>
        </EnumeratedItem>
        <EnumeratedItem CodedValue="Antidepressants" nciodm:ExtCodeID="C74691">
          <nciodm:CDISCSynonym>Antidepressants</nciodm:CDISCSynonym>
          <nciodm:CDISCDefinition>A measurement of any antidepressant class drug present in a biological specimen.</nciodm:CDISCDefinition>
          <nciodm:PreferredTerm>Antidepressant Measurement</nciodm:PreferredTerm>
        </EnumeratedItem>
        <EnumeratedItem CodedValue="Antidiuretic Hormone" nciodm:ExtCodeID="C74847">
          <nciodm:CDISCSynonym>Antidiuretic Hormone</nciodm:CDISCSynonym>
          <nciodm:CDISCSynonym>Vasopressin</nciodm:CDISCSynonym>
          <nciodm:CDISCDefinition>A measurement of the antidiuretic hormone in a biological specimen.</nciodm:CDISCDefinition>
          <nciodm:PreferredTerm>Antidiuretic Hormone Measurement</nciodm:PreferredTerm>
        </EnumeratedItem>
        <EnumeratedItem CodedValue="Atrial Natriuretic Peptide" nciodm:ExtCodeID="C74886">
          <nciodm:CDISCSynonym>Atrial Natriuretic Peptide</nciodm:CDISCSynonym>
          <nciodm:CDISCSynonym>Atriopeptin</nciodm:CDISCSynonym>
          <nciodm:CDISCDefinition>A measurement of the atrial natriuretic peptide in a biological specimen.</nciodm:CDISCDefinition>
          <nciodm:PreferredTerm>Atrial Natriuretic Peptide Measurement</nciodm:PreferredTerm>
        </EnumeratedItem>
        <EnumeratedItem CodedValue="Benzodiazepine" nciodm:ExtCodeID="C74692">
          <nciodm:CDISCSynonym>Benzodiazepine</nciodm:CDISCSynonym>
          <nciodm:CDISCDefinition>A measurement of any benzodiazepine class drug present in a biological specimen.</nciodm:CDISCDefinition>
          <nciodm:PreferredTerm>Benzodiazepine Measurement</nciodm:PreferredTerm>
        </EnumeratedItem>
        <EnumeratedItem CodedValue="Bile Acid" nciodm:ExtCodeID="C74800">
          <nciodm:CDISCSynonym>Bile Acid</nciodm:CDISCSynonym>
          <nciodm:CDISCSynonym>Bile Salts</nciodm:CDISCSynonym>
          <nciodm:CDISCSynonym>Bile Acids</nciodm:CDISCSynonym>
          <nciodm:CDISCSynonym>Bile Salt</nciodm:CDISCSynonym>
          <nciodm:CDISCDefinition>A measurement of the total bile acids in a biological specimen.</nciodm:CDISCDefinition>
          <nciodm:PreferredTerm>Bile Acid Measurement</nciodm:PreferredTerm>
        </EnumeratedItem>
        <EnumeratedItem CodedValue="Calcitonin" nciodm:ExtCodeID="C74848">
          <nciodm:CDISCSynonym>Calcitonin</nciodm:CDISCSynonym>
          <nciodm:CDISCDefinition>A measurement of the calcitonin hormone in a biological specimen.</nciodm:CDISCDefinition>
          <nciodm:PreferredTerm>Calcitonin Measurement</nciodm:PreferredTerm>
        </EnumeratedItem>
        <EnumeratedItem CodedValue="Calcitriol" nciodm:ExtCodeID="C74849">
          <nciodm:CDISCSynonym>Calcitriol</nciodm:CDISCSynonym>
          <nciodm:CDISCDefinition>A measurement of the calcitriol hormone in a biological specimen.</nciodm:CDISCDefinition>
          <nciodm:PreferredTerm>Calcitriol Measurement</nciodm:PreferredTerm>
        </EnumeratedItem>
        <EnumeratedItem CodedValue="Calcium/Creatinine" nciodm:ExtCodeID="C79439">
          <nciodm:CDISCSynonym>Calcium/Creatinine</nciodm:CDISCSynonym>
          <nciodm:CDISCDefinition>A relative measurement (ratio or percentage) of the calcium to creatinine in a biological specimen.</nciodm:CDISCDefinition>
          <nciodm:PreferredTerm>Calcium to Creatinine Ratio Measurement</nciodm:PreferredTerm>
        </EnumeratedItem>
        <EnumeratedItem CodedValue="Chloride/Creatinine" nciodm:ExtCodeID="C79440">
          <nciodm:CDISCSynonym>Chloride/Creatinine</nciodm:CDISCSynonym>
          <nciodm:CDISCDefinition>A relative measurement (ratio or percentage) of the chloride to creatinine in a biological specimen.</nciodm:CDISCDefinition>
          <nciodm:PreferredTerm>Chloride to Creatinine Ratio Measurement</nciodm:PreferredTerm>
        </EnumeratedItem>
        <EnumeratedItem CodedValue="Cholecystokinin" nciodm:ExtCodeID="C74850">
          <nciodm:CDISCSynonym>Cholecystokinin</nciodm:CDISCSynonym>
          <nciodm:CDISCSynonym>Pancreozymin</nciodm:CDISCSynonym>
          <nciodm:CDISCDefinition>A measurement of the cholecystokinin hormone in a biological specimen.</nciodm:CDISCDefinition>
          <nciodm:PreferredTerm>Cholecystokinin Measurement</nciodm:PreferredTerm>
        </EnumeratedItem>
        <EnumeratedItem CodedValue="Codeine" nciodm:ExtCodeID="C74877">
          <nciodm:CDISCSynonym>Codeine</nciodm:CDISCSynonym>
          <nciodm:CDISCDefinition>A measurement of the codeine present in a biological specimen.</nciodm:CDISCDefinition>
          <nciodm:PreferredTerm>Codeine Measurement</nciodm:PreferredTerm>
        </EnumeratedItem>
        <EnumeratedItem CodedValue="Corticosterone" nciodm:ExtCodeID="C79434">
          <nciodm:CDISCSynonym>Corticosterone</nciodm:CDISCSynonym>
          <nciodm:CDISCDefinition>A measurement of corticosterone in a biological specimen.</nciodm:CDISCDefinition>
          <nciodm:PreferredTerm>Corticosterone Measurement</nciodm:PreferredTerm>
        </EnumeratedItem>
        <EnumeratedItem CodedValue="Corticotropin Releasing Hormone" nciodm:ExtCodeID="C74851">
          <nciodm:CDISCSynonym>Corticotropin Releasing Hormone</nciodm:CDISCSynonym>
          <nciodm:CDISCSynonym>Corticotropin Releasing Factor</nciodm:CDISCSynonym>
          <nciodm:CDISCDefinition>A measurement of the corticotropin releasing hormone in a biological specimen.</nciodm:CDISCDefinition>
          <nciodm:PreferredTerm>Corticotropin Releasing Hormone Measurement</nciodm:PreferredTerm>
        </EnumeratedItem>
        <EnumeratedItem CodedValue="Creatine Kinase BB/Total Creatine Kinase" nciodm:ExtCodeID="C79466">
          <nciodm:CDISCSynonym>Creatine Kinase BB/Total Creatine Kinase</nciodm:CDISCSynonym>
          <nciodm:CDISCDefinition>A relative measurement (ratio or percentage) of the BB-type creatine kinase to total creatine kinase in a biological specimen.</nciodm:CDISCDefinition>
          <nciodm:PreferredTerm>Creatine Kinase BB to Total Creatine Kinase Ratio Measurement</nciodm:PreferredTerm>
        </EnumeratedItem>
        <EnumeratedItem CodedValue="Creatine Kinase MB/Total Creatine Kinase" nciodm:ExtCodeID="C79441">
          <nciodm:CDISCSynonym>Creatine Kinase MB/Total Creatine Kinase</nciodm:CDISCSynonym>
          <nciodm:CDISCDefinition>A relative measurement (ratio or percentage) of the MB-type creatine kinase to total creatine kinase in a biological specimen.</nciodm:CDISCDefinition>
          <nciodm:PreferredTerm>Creatine Kinase MB to Total Creatine Kinase Ratio Measurement</nciodm:PreferredTerm>
        </EnumeratedItem>
        <EnumeratedItem CodedValue="Creatine Kinase MM/Total Creatine Kinase" nciodm:ExtCodeID="C79442">
          <nciodm:CDISCSynonym>Creatine Kinase MM/Total Creatine Kinase</nciodm:CDISCSynonym>
          <nciodm:CDISCDefinition>A relative measurement (ratio or percentage) of the MM-type creatine kinase to total creatine kinase in a biological specimen.</nciodm:CDISCDefinition>
          <nciodm:PreferredTerm>Creatine Kinase MM to Total Creatine Kinase Ratio Measurement</nciodm:PreferredTerm>
        </EnumeratedItem>
        <EnumeratedItem CodedValue="Dehydroepiandrosterone" nciodm:ExtCodeID="C74852">
          <nciodm:CDISCSynonym>Dehydroepiandrosterone</nciodm:CDISCSynonym>
          <nciodm:CDISCSynonym>Dehydroisoandrosterone</nciodm:CDISCSynonym>
          <nciodm:CDISCDefinition>A measurement of the dehydroepiandrosterone hormone in a biological specimen.</nciodm:CDISCDefinition>
          <nciodm:PreferredTerm>Dehydroepiandrosterone Measurement</nciodm:PreferredTerm>
        </EnumeratedItem>
        <EnumeratedItem CodedValue="Deoxypyridinoline" nciodm:ExtCodeID="C79443">
          <nciodm:CDISCSynonym>Deoxypyridinoline</nciodm:CDISCSynonym>
          <nciodm:CDISCDefinition>A measurement of the deoxypyridinoline in a biological specimen.</nciodm:CDISCDefinition>
          <nciodm:PreferredTerm>Deoxypyridinoline Measurement</nciodm:PreferredTerm>
        </EnumeratedItem>
        <EnumeratedItem CodedValue="Deoxypyridinoline/Creatinine" nciodm:ExtCodeID="C79444">
          <nciodm:CDISCSynonym>Deoxypyridinoline/Creatinine</nciodm:CDISCSynonym>
          <nciodm:CDISCDefinition>A relative measurement (ratio or percentage) of the deoxypyridinoline to creatinine in a biological specimen.</nciodm:CDISCDefinition>
          <nciodm:PreferredTerm>Deoxypyridinoline to Creatinine Ratio Measurement</nciodm:PreferredTerm>
        </EnumeratedItem>
        <EnumeratedItem CodedValue="Dihydrocodeine" nciodm:ExtCodeID="C74878">
          <nciodm:CDISCSynonym>Dihydrocodeine</nciodm:CDISCSynonym>
          <nciodm:CDISCDefinition>A measurement of the dihydrocodeine present in a biological specimen.</nciodm:CDISCDefinition>
          <nciodm:PreferredTerm>Dihydrocodeine Measurement</nciodm:PreferredTerm>
        </EnumeratedItem>
        <EnumeratedItem CodedValue="Dihydrotestosterone" nciodm:ExtCodeID="C74853">
          <nciodm:CDISCSynonym>Dihydrotestosterone</nciodm:CDISCSynonym>
          <nciodm:CDISCSynonym>Androstanalone</nciodm:CDISCSynonym>
          <nciodm:CDISCDefinition>A measurement of the dihydrotestosterone hormone in a biological specimen.</nciodm:CDISCDefinition>
          <nciodm:PreferredTerm>Dihydrotestosterone Measurement</nciodm:PreferredTerm>
        </EnumeratedItem>
        <EnumeratedItem CodedValue="Dopamine" nciodm:ExtCodeID="C74854">
          <nciodm:CDISCSynonym>Dopamine</nciodm:CDISCSynonym>
          <nciodm:CDISCDefinition>A measurement of the dopamine hormone in a biological specimen.</nciodm:CDISCDefinition>
          <nciodm:PreferredTerm>Dopamine Measurement</nciodm:PreferredTerm>
        </EnumeratedItem>
        <EnumeratedItem CodedValue="Epinephrine" nciodm:ExtCodeID="C79445">
          <nciodm:CDISCSynonym>Epinephrine</nciodm:CDISCSynonym>
          <nciodm:CDISCSynonym>Adrenaline</nciodm:CDISCSynonym>
          <nciodm:CDISCDefinition>A measurement of the epinephrine hormone in a biological specimen.</nciodm:CDISCDefinition>
          <nciodm:PreferredTerm>Epinephrine Measurement</nciodm:PreferredTerm>
        </EnumeratedItem>
        <EnumeratedItem CodedValue="Erythropoietin" nciodm:ExtCodeID="C74855">
          <nciodm:CDISCSynonym>Erythropoietin</nciodm:CDISCSynonym>
          <nciodm:CDISCSynonym>Hematopoietin</nciodm:CDISCSynonym>
          <nciodm:CDISCDefinition>A measurement of the erythropoietin hormone in a biological specimen.</nciodm:CDISCDefinition>
          <nciodm:PreferredTerm>Erythropoietin Measurement</nciodm:PreferredTerm>
        </EnumeratedItem>
        <EnumeratedItem CodedValue="Estriol" nciodm:ExtCodeID="C74856">
          <nciodm:CDISCSynonym>Estriol</nciodm:CDISCSynonym>
          <nciodm:CDISCSynonym>Oestriol</nciodm:CDISCSynonym>
          <nciodm:CDISCDefinition>A measurement of the estriol hormone in a biological specimen.</nciodm:CDISCDefinition>
          <nciodm:PreferredTerm>Estriol Measurement</nciodm:PreferredTerm>
        </EnumeratedItem>
        <EnumeratedItem CodedValue="Estrone" nciodm:ExtCodeID="C74857">
          <nciodm:CDISCSynonym>Estrone</nciodm:CDISCSynonym>
          <nciodm:CDISCSynonym>Oestrone</nciodm:CDISCSynonym>
          <nciodm:CDISCDefinition>A measurement of the estrone hormone in a biological specimen.</nciodm:CDISCDefinition>
          <nciodm:PreferredTerm>Estrone Measurement</nciodm:PreferredTerm>
        </EnumeratedItem>
        <EnumeratedItem CodedValue="Ethanol" nciodm:ExtCodeID="C74693">
          <nciodm:CDISCSynonym>Ethanol</nciodm:CDISCSynonym>
          <nciodm:CDISCSynonym>Alcohol</nciodm:CDISCSynonym>
          <nciodm:CDISCDefinition>A measurement of the ethanol present in a biological specimen.</nciodm:CDISCDefinition>
          <nciodm:PreferredTerm>Ethanol Measurement</nciodm:PreferredTerm>
        </EnumeratedItem>
        <EnumeratedItem CodedValue="Gamma Glutamyl Transferase/Creatinine" nciodm:ExtCodeID="C79446">
          <nciodm:CDISCSynonym>Gamma Glutamyl Transferase/Creatinine</nciodm:CDISCSynonym>
          <nciodm:CDISCDefinition>A relative measurement (ratio or percentage) of the gamma glutamyl transferase to creatinine in a biological specimen.</nciodm:CDISCDefinition>
          <nciodm:PreferredTerm>Gamma Glutamyl Transferase to Creatinine Ratio Measurement</nciodm:PreferredTerm>
        </EnumeratedItem>
        <EnumeratedItem CodedValue="Gastrin" nciodm:ExtCodeID="C74858">
          <nciodm:CDISCSynonym>Gastrin</nciodm:CDISCSynonym>
          <nciodm:CDISCDefinition>A measurement of the gastrin hormone in a biological specimen.</nciodm:CDISCDefinition>
          <nciodm:PreferredTerm>Gastrin Measurement</nciodm:PreferredTerm>
        </EnumeratedItem>
        <EnumeratedItem CodedValue="Glucagon" nciodm:ExtCodeID="C74859">
          <nciodm:CDISCSynonym>Glucagon</nciodm:CDISCSynonym>
          <nciodm:CDISCDefinition>A measurement of the glucagon hormone in a biological specimen.</nciodm:CDISCDefinition>
          <nciodm:PreferredTerm>Glucagon Measurement</nciodm:PreferredTerm>
        </EnumeratedItem>
        <EnumeratedItem CodedValue="Glucose/Creatinine" nciodm:ExtCodeID="C79447">
          <nciodm:CDISCSynonym>Glucose/Creatinine</nciodm:CDISCSynonym>
          <nciodm:CDISCDefinition>A relative measurement (ratio or percentage) of the glucose to creatinine in a biological specimen.</nciodm:CDISCDefinition>
          <nciodm:PreferredTerm>Glucose to Creatinine Ratio Measurement</nciodm:PreferredTerm>
        </EnumeratedItem>
        <EnumeratedItem CodedValue="Glutamate Dehydrogenase" nciodm:ExtCodeID="C79448">
          <nciodm:CDISCSynonym>Glutamate Dehydrogenase</nciodm:CDISCSynonym>
          <nciodm:CDISCDefinition>A measurement of the glutamate dehydrogenase in a biological specimen.</nciodm:CDISCDefinition>
          <nciodm:PreferredTerm>Glutamate Dehydrogenase Measurement</nciodm:PreferredTerm>
        </EnumeratedItem>
        <EnumeratedItem CodedValue="Glutathione-S-Transferase/Creatinine" nciodm:ExtCodeID="C79435">
          <nciodm:CDISCSynonym>Glutathione-S-Transferase/Creatinine</nciodm:CDISCSynonym>
          <nciodm:CDISCDefinition>A relative measurement (ratio or percentage) of the glutathione S-transferase to creatinine in a biological specimen.</nciodm:CDISCDefinition>
          <nciodm:PreferredTerm>Glutathione-S-Transferase to Creatinine Ratio Measurement</nciodm:PreferredTerm>
        </EnumeratedItem>
        <EnumeratedItem CodedValue="Gonadotropin Releasing Hormone" nciodm:ExtCodeID="C74860">
          <nciodm:CDISCSynonym>Gonadotropin Releasing Hormone</nciodm:CDISCSynonym>
          <nciodm:CDISCSynonym>Luteinising Hormone Releasing Hormone</nciodm:CDISCSynonym>
          <nciodm:CDISCDefinition>A measurement of the gonadotropin releasing hormone in a biological specimen.</nciodm:CDISCDefinition>
          <nciodm:PreferredTerm>Gonadotropin Releasing Hormone Measurement</nciodm:PreferredTerm>
        </EnumeratedItem>
        <EnumeratedItem CodedValue="Growth Hormone Inhibiting Hormone" nciodm:ExtCodeID="C74861">
          <nciodm:CDISCSynonym>Growth Hormone Inhibiting Hormone</nciodm:CDISCSynonym>
          <nciodm:CDISCSynonym>Somatostatin</nciodm:CDISCSynonym>
          <nciodm:CDISCDefinition>A measurement of the growth hormone inhibiting hormone in a biological specimen.</nciodm:CDISCDefinition>
          <nciodm:PreferredTerm>Growth Hormone Inhibiting Hormone Measurement</nciodm:PreferredTerm>
        </EnumeratedItem>
        <EnumeratedItem CodedValue="Growth Hormone Releasing Hormone" nciodm:ExtCodeID="C74862">
          <nciodm:CDISCSynonym>Growth Hormone Releasing Hormone</nciodm:CDISCSynonym>
          <nciodm:CDISCSynonym>Somatocrinin</nciodm:CDISCSynonym>
          <nciodm:CDISCDefinition>A measurement of the growth hormone releasing hormone in a biological specimen.</nciodm:CDISCDefinition>
          <nciodm:PreferredTerm>Growth Hormone Releasing Hormone Measurement</nciodm:PreferredTerm>
        </EnumeratedItem>
        <EnumeratedItem CodedValue="Homovanillic Acid" nciodm:ExtCodeID="C74863">
          <nciodm:CDISCSynonym>Homovanillic Acid</nciodm:CDISCSynonym>
          <nciodm:CDISCDefinition>A measurement of the homovanillic acid metabolite in a biological specimen.</nciodm:CDISCDefinition>
          <nciodm:PreferredTerm>Homovanillic Acid Measurement</nciodm:PreferredTerm>
        </EnumeratedItem>
        <EnumeratedItem CodedValue="Hydrocodone" nciodm:ExtCodeID="C74879">
          <nciodm:CDISCSynonym>Hydrocodone</nciodm:CDISCSynonym>
          <nciodm:CDISCDefinition>A measurement of the hydrocodone present in a biological specimen.</nciodm:CDISCDefinition>
          <nciodm:PreferredTerm>Hydrocodone Measurement</nciodm:PreferredTerm>
        </EnumeratedItem>
        <EnumeratedItem CodedValue="Hydromorphone" nciodm:ExtCodeID="C74880">
          <nciodm:CDISCSynonym>Hydromorphone</nciodm:CDISCSynonym>
          <nciodm:CDISCDefinition>A measurement of the hydromorphone present in a biological specimen.</nciodm:CDISCDefinition>
          <nciodm:PreferredTerm>Hydromorphone Measurement</nciodm:PreferredTerm>
        </EnumeratedItem>
        <EnumeratedItem CodedValue="Insulin-like Growth Factor-1" nciodm:ExtCodeID="C74864">
          <nciodm:CDISCSynonym>Insulin-like Growth Factor-1</nciodm:CDISCSynonym>
          <nciodm:CDISCDefinition>A measurement of the insulin-like growth factor-1 in a biological specimen.</nciodm:CDISCDefinition>
          <nciodm:PreferredTerm>Insulin Like Growth Factor-1 Measurement</nciodm:PreferredTerm>
        </EnumeratedItem>
        <EnumeratedItem CodedValue="Insulin-like Growth Factor-2" nciodm:ExtCodeID="C74865">
          <nciodm:CDISCSynonym>Insulin-like Growth Factor-2</nciodm:CDISCSynonym>
          <nciodm:CDISCDefinition>A measurement of the insulin-like growth factor-2 in a biological specimen.</nciodm:CDISCDefinition>
          <nciodm:PreferredTerm>Insulin Like Growth Factor-2 Measurement</nciodm:PreferredTerm>
        </EnumeratedItem>
        <EnumeratedItem CodedValue="Interleukin 1" nciodm:ExtCodeID="C74805">
          <nciodm:CDISCSynonym>Interleukin 1</nciodm:CDISCSynonym>
          <nciodm:CDISCDefinition>A measurement of the interleukin 1 in a biological specimen.</nciodm:CDISCDefinition>
          <nciodm:PreferredTerm>Interleukin 1 Measurement</nciodm:PreferredTerm>
        </EnumeratedItem>
        <EnumeratedItem CodedValue="Interleukin 10" nciodm:ExtCodeID="C74806">
          <nciodm:CDISCSynonym>Interleukin 10</nciodm:CDISCSynonym>
          <nciodm:CDISCDefinition>A measurement of the interleukin 10 in a biological specimen.</nciodm:CDISCDefinition>
          <nciodm:PreferredTerm>Interleukin 10 Measurement</nciodm:PreferredTerm>
        </EnumeratedItem>
        <EnumeratedItem CodedValue="Interleukin 11" nciodm:ExtCodeID="C74807">
          <nciodm:CDISCSynonym>Interleukin 11</nciodm:CDISCSynonym>
          <nciodm:CDISCDefinition>A measurement of the interleukin 11 in a biological specimen.</nciodm:CDISCDefinition>
          <nciodm:PreferredTerm>Interleukin 11 Measurement</nciodm:PreferredTerm>
        </EnumeratedItem>
        <EnumeratedItem CodedValue="Interleukin 12" nciodm:ExtCodeID="C74808">
          <nciodm:CDISCSynonym>Interleukin 12</nciodm:CDISCSynonym>
          <nciodm:CDISCDefinition>A measurement of the interleukin 12 in a biological specimen.</nciodm:CDISCDefinition>
          <nciodm:PreferredTerm>Interleukin 12 Measurement</nciodm:PreferredTerm>
        </EnumeratedItem>
        <EnumeratedItem CodedValue="Interleukin 13" nciodm:ExtCodeID="C74809">
          <nciodm:CDISCSynonym>Interleukin 13</nciodm:CDISCSynonym>
          <nciodm:CDISCDefinition>A measurement of the interleukin 13 in a biological specimen.</nciodm:CDISCDefinition>
          <nciodm:PreferredTerm>Interleukin 13 Measurement</nciodm:PreferredTerm>
        </EnumeratedItem>
        <EnumeratedItem CodedValue="Interleukin 14" nciodm:ExtCodeID="C74810">
          <nciodm:CDISCSynonym>Interleukin 14</nciodm:CDISCSynonym>
          <nciodm:CDISCDefinition>A measurement of the interleukin 14 in a biological specimen.</nciodm:CDISCDefinition>
          <nciodm:PreferredTerm>Interleukin 14 Measurement</nciodm:PreferredTerm>
        </EnumeratedItem>
        <EnumeratedItem CodedValue="Interleukin 15" nciodm:ExtCodeID="C74811">
          <nciodm:CDISCSynonym>Interleukin 15</nciodm:CDISCSynonym>
          <nciodm:CDISCDefinition>A measurement of the interleukin 15 in a biological specimen.</nciodm:CDISCDefinition>
          <nciodm:PreferredTerm>Interleukin 15 Measurement</nciodm:PreferredTerm>
        </EnumeratedItem>
        <EnumeratedItem CodedValue="Interleukin 16" nciodm:ExtCodeID="C74812">
          <nciodm:CDISCSynonym>Interleukin 16</nciodm:CDISCSynonym>
          <nciodm:CDISCDefinition>A measurement of the interleukin 16 in a biological specimen.</nciodm:CDISCDefinition>
          <nciodm:PreferredTerm>Interleukin 16 Measurement</nciodm:PreferredTerm>
        </EnumeratedItem>
        <EnumeratedItem CodedValue="Interleukin 17" nciodm:ExtCodeID="C74813">
          <nciodm:CDISCSynonym>Interleukin 17</nciodm:CDISCSynonym>
          <nciodm:CDISCDefinition>A measurement of the interleukin 17 in a biological specimen.</nciodm:CDISCDefinition>
          <nciodm:PreferredTerm>Interleukin 17 Measurement</nciodm:PreferredTerm>
        </EnumeratedItem>
        <EnumeratedItem CodedValue="Interleukin 18" nciodm:ExtCodeID="C74814">
          <nciodm:CDISCSynonym>Interleukin 18</nciodm:CDISCSynonym>
          <nciodm:CDISCDefinition>A measurement of the interleukin 18 in a biological specimen.</nciodm:CDISCDefinition>
          <nciodm:PreferredTerm>Interleukin 18 Measurement</nciodm:PreferredTerm>
        </EnumeratedItem>
        <EnumeratedItem CodedValue="Interleukin 19" nciodm:ExtCodeID="C74815">
          <nciodm:CDISCSynonym>Interleukin 19</nciodm:CDISCSynonym>
          <nciodm:CDISCDefinition>A measurement of the interleukin 19 in a biological specimen.</nciodm:CDISCDefinition>
          <nciodm:PreferredTerm>Interleukin 19 Measurement</nciodm:PreferredTerm>
        </EnumeratedItem>
        <EnumeratedItem CodedValue="Interleukin 2" nciodm:ExtCodeID="C74816">
          <nciodm:CDISCSynonym>Interleukin 2</nciodm:CDISCSynonym>
          <nciodm:CDISCDefinition>A measurement of the interleukin 2 in a biological specimen.</nciodm:CDISCDefinition>
          <nciodm:PreferredTerm>Interleukin 2 Measurement</nciodm:PreferredTerm>
        </EnumeratedItem>
        <EnumeratedItem CodedValue="Interleukin 20" nciodm:ExtCodeID="C74817">
          <nciodm:CDISCSynonym>Interleukin 20</nciodm:CDISCSynonym>
          <nciodm:CDISCDefinition>A measurement of the interleukin 20 in a biological specimen.</nciodm:CDISCDefinition>
          <nciodm:PreferredTerm>Interleukin 20 Measurement</nciodm:PreferredTerm>
        </EnumeratedItem>
        <EnumeratedItem CodedValue="Interleukin 21" nciodm:ExtCodeID="C74818">
          <nciodm:CDISCSynonym>Interleukin 21</nciodm:CDISCSynonym>
          <nciodm:CDISCDefinition>A measurement of the interleukin 21 in a biological specimen.</nciodm:CDISCDefinition>
          <nciodm:PreferredTerm>Interleukin 21 Measurement</nciodm:PreferredTerm>
        </EnumeratedItem>
        <EnumeratedItem CodedValue="Interleukin 22" nciodm:ExtCodeID="C74819">
          <nciodm:CDISCSynonym>Interleukin 22</nciodm:CDISCSynonym>
          <nciodm:CDISCDefinition>A measurement of the interleukin 22 in a biological specimen.</nciodm:CDISCDefinition>
          <nciodm:PreferredTerm>Interleukin 22 Measurement</nciodm:PreferredTerm>
        </EnumeratedItem>
        <EnumeratedItem CodedValue="Interleukin 23" nciodm:ExtCodeID="C74820">
          <nciodm:CDISCSynonym>Interleukin 23</nciodm:CDISCSynonym>
          <nciodm:CDISCDefinition>A measurement of the interleukin 23 in a biological specimen.</nciodm:CDISCDefinition>
          <nciodm:PreferredTerm>Interleukin 23 Measurement</nciodm:PreferredTerm>
        </EnumeratedItem>
        <EnumeratedItem CodedValue="Interleukin 24" nciodm:ExtCodeID="C74821">
          <nciodm:CDISCSynonym>Interleukin 24</nciodm:CDISCSynonym>
          <nciodm:CDISCDefinition>A measurement of the interleukin 24 in a biological specimen.</nciodm:CDISCDefinition>
          <nciodm:PreferredTerm>Interleukin 24 Measurement</nciodm:PreferredTerm>
        </EnumeratedItem>
        <EnumeratedItem CodedValue="Interleukin 25" nciodm:ExtCodeID="C74822">
          <nciodm:CDISCSynonym>Interleukin 25</nciodm:CDISCSynonym>
          <nciodm:CDISCDefinition>A measurement of the interleukin 25 in a biological specimen.</nciodm:CDISCDefinition>
          <nciodm:PreferredTerm>Interleukin 25 Measurement</nciodm:PreferredTerm>
        </EnumeratedItem>
        <EnumeratedItem CodedValue="Interleukin 26" nciodm:ExtCodeID="C74823">
          <nciodm:CDISCSynonym>Interleukin 26</nciodm:CDISCSynonym>
          <nciodm:CDISCDefinition>A measurement of the interleukin 26 in a biological specimen.</nciodm:CDISCDefinition>
          <nciodm:PreferredTerm>Interleukin 26 Measurement</nciodm:PreferredTerm>
        </EnumeratedItem>
        <EnumeratedItem CodedValue="Interleukin 27" nciodm:ExtCodeID="C74824">
          <nciodm:CDISCSynonym>Interleukin 27</nciodm:CDISCSynonym>
          <nciodm:CDISCDefinition>A measurement of the interleukin 27 in a biological specimen.</nciodm:CDISCDefinition>
          <nciodm:PreferredTerm>Interleukin 27 Measurement</nciodm:PreferredTerm>
        </EnumeratedItem>
        <EnumeratedItem CodedValue="Interleukin 28" nciodm:ExtCodeID="C74825">
          <nciodm:CDISCSynonym>Interleukin 28</nciodm:CDISCSynonym>
          <nciodm:CDISCDefinition>A measurement of the interleukin 28 in a biological specimen.</nciodm:CDISCDefinition>
          <nciodm:PreferredTerm>Interleukin 28 Measurement</nciodm:PreferredTerm>
        </EnumeratedItem>
        <EnumeratedItem CodedValue="Interleukin 29" nciodm:ExtCodeID="C74826">
          <nciodm:CDISCSynonym>Interleukin 29</nciodm:CDISCSynonym>
          <nciodm:CDISCDefinition>A measurement of the interleukin 29 in a biological specimen.</nciodm:CDISCDefinition>
          <nciodm:PreferredTerm>Interleukin 29 Measurement</nciodm:PreferredTerm>
        </EnumeratedItem>
        <EnumeratedItem CodedValue="Interleukin 3" nciodm:ExtCodeID="C74827">
          <nciodm:CDISCSynonym>Interleukin 3</nciodm:CDISCSynonym>
          <nciodm:CDISCDefinition>A measurement of the interleukin 3 in a biological specimen.</nciodm:CDISCDefinition>
          <nciodm:PreferredTerm>Interleukin 3 Measurement</nciodm:PreferredTerm>
        </EnumeratedItem>
        <EnumeratedItem CodedValue="Interleukin 30" nciodm:ExtCodeID="C74828">
          <nciodm:CDISCSynonym>Interleukin 30</nciodm:CDISCSynonym>
          <nciodm:CDISCDefinition>A measurement of the interleukin 30 in a biological specimen.</nciodm:CDISCDefinition>
          <nciodm:PreferredTerm>Interleukin 30 Measurement</nciodm:PreferredTerm>
        </EnumeratedItem>
        <EnumeratedItem CodedValue="Interleukin 31" nciodm:ExtCodeID="C74829">
          <nciodm:CDISCSynonym>Interleukin 31</nciodm:CDISCSynonym>
          <nciodm:CDISCDefinition>A measurement of the interleukin 31 in a biological specimen.</nciodm:CDISCDefinition>
          <nciodm:PreferredTerm>Interleukin 31 Measurement</nciodm:PreferredTerm>
        </EnumeratedItem>
        <EnumeratedItem CodedValue="Interleukin 32" nciodm:ExtCodeID="C74830">
          <nciodm:CDISCSynonym>Interleukin 32</nciodm:CDISCSynonym>
          <nciodm:CDISCDefinition>A measurement of the interleukin 32 in a biological specimen.</nciodm:CDISCDefinition>
          <nciodm:PreferredTerm>Interleukin 32 Measurement</nciodm:PreferredTerm>
        </EnumeratedItem>
        <EnumeratedItem CodedValue="Interleukin 33" nciodm:ExtCodeID="C74831">
          <nciodm:CDISCSynonym>Interleukin 33</nciodm:CDISCSynonym>
          <nciodm:CDISCDefinition>A measurement of the interleukin 33 in a biological specimen.</nciodm:CDISCDefinition>
          <nciodm:PreferredTerm>Interleukin 33 Measurement</nciodm:PreferredTerm>
        </EnumeratedItem>
        <EnumeratedItem CodedValue="Interleukin 4" nciodm:ExtCodeID="C74832">
          <nciodm:CDISCSynonym>Interleukin 4</nciodm:CDISCSynonym>
          <nciodm:CDISCDefinition>A measurement of the interleukin 4 in a biological specimen.</nciodm:CDISCDefinition>
          <nciodm:PreferredTerm>Interleukin 4 Measurement</nciodm:PreferredTerm>
        </EnumeratedItem>
        <EnumeratedItem CodedValue="Interleukin 5" nciodm:ExtCodeID="C74833">
          <nciodm:CDISCSynonym>Interleukin 5</nciodm:CDISCSynonym>
          <nciodm:CDISCDefinition>A measurement of the interleukin 5 in a biological specimen.</nciodm:CDISCDefinition>
          <nciodm:PreferredTerm>Interleukin 5 Measurement</nciodm:PreferredTerm>
        </EnumeratedItem>
        <EnumeratedItem CodedValue="Interleukin 6" nciodm:ExtCodeID="C74834">
          <nciodm:CDISCSynonym>Interleukin 6</nciodm:CDISCSynonym>
          <nciodm:CDISCDefinition>A measurement of the interleukin 6 in a biological specimen.</nciodm:CDISCDefinition>
          <nciodm:PreferredTerm>Interleukin 6 Measurement</nciodm:PreferredTerm>
        </EnumeratedItem>
        <EnumeratedItem CodedValue="Interleukin 7" nciodm:ExtCodeID="C74835">
          <nciodm:CDISCSynonym>Interleukin 7</nciodm:CDISCSynonym>
          <nciodm:CDISCDefinition>A measurement of the interleukin 7 in a biological specimen.</nciodm:CDISCDefinition>
          <nciodm:PreferredTerm>Interleukin 7 Measurement</nciodm:PreferredTerm>
        </EnumeratedItem>
        <EnumeratedItem CodedValue="Interleukin 8" nciodm:ExtCodeID="C74836">
          <nciodm:CDISCSynonym>Interleukin 8</nciodm:CDISCSynonym>
          <nciodm:CDISCDefinition>A measurement of the interleukin 8 in a biological specimen.</nciodm:CDISCDefinition>
          <nciodm:PreferredTerm>Interleukin 8 Measurement</nciodm:PreferredTerm>
        </EnumeratedItem>
        <EnumeratedItem CodedValue="Interleukin 9" nciodm:ExtCodeID="C74837">
          <nciodm:CDISCSynonym>Interleukin 9</nciodm:CDISCSynonym>
          <nciodm:CDISCDefinition>A measurement of the interleukin 9 in a biological specimen.</nciodm:CDISCDefinition>
          <nciodm:PreferredTerm>Interleukin 9 Measurement</nciodm:PreferredTerm>
        </EnumeratedItem>
        <EnumeratedItem CodedValue="LDH Isoenzyme 1" nciodm:ExtCodeID="C74887">
          <nciodm:CDISCSynonym>LDH Isoenzyme 1</nciodm:CDISCSynonym>
          <nciodm:CDISCDefinition>A measurement of the lactate dehydrogenase isoenzyme 1 in a biological specimen.</nciodm:CDISCDefinition>
          <nciodm:PreferredTerm>Lactate Dehydrogenase Isoenzyme 1 Measurement</nciodm:PreferredTerm>
        </EnumeratedItem>
        <EnumeratedItem CodedValue="LDH Isoenzyme 2" nciodm:ExtCodeID="C74888">
          <nciodm:CDISCSynonym>LDH Isoenzyme 2</nciodm:CDISCSynonym>
          <nciodm:CDISCDefinition>A measurement of the lactate dehydrogenase isoenzyme 2 in a biological specimen.</nciodm:CDISCDefinition>
          <nciodm:PreferredTerm>Lactate Dehydrogenase Isoenzyme 2 Measurement</nciodm:PreferredTerm>
        </EnumeratedItem>
        <EnumeratedItem CodedValue="LDH Isoenzyme 3" nciodm:ExtCodeID="C74889">
          <nciodm:CDISCSynonym>LDH Isoenzyme 3</nciodm:CDISCSynonym>
          <nciodm:CDISCDefinition>A measurement of the lactate dehydrogenase isoenzyme 3 in a biological specimen.</nciodm:CDISCDefinition>
          <nciodm:PreferredTerm>Lactate Dehydrogenase Isoenzyme 3 Measurement</nciodm:PreferredTerm>
        </EnumeratedItem>
        <EnumeratedItem CodedValue="LDH Isoenzyme 4" nciodm:ExtCodeID="C74890">
          <nciodm:CDISCSynonym>LDH Isoenzyme 4</nciodm:CDISCSynonym>
          <nciodm:CDISCDefinition>A measurement of the lactate dehydrogenase isoenzyme 4 in a biological specimen.</nciodm:CDISCDefinition>
          <nciodm:PreferredTerm>Lactate Dehydrogenase Isoenzyme 4 Measurement</nciodm:PreferredTerm>
        </EnumeratedItem>
        <EnumeratedItem CodedValue="LDH Isoenzyme 5" nciodm:ExtCodeID="C74891">
          <nciodm:CDISCSynonym>LDH Isoenzyme 5</nciodm:CDISCSynonym>
          <nciodm:CDISCDefinition>A measurement of the lactate dehydrogenase isoenzyme 5 in a biological specimen.</nciodm:CDISCDefinition>
          <nciodm:PreferredTerm>Lactate Dehydrogenase Isoenzyme 5 Measurement</nciodm:PreferredTerm>
        </EnumeratedItem>
        <EnumeratedItem CodedValue="Lactate Dehydrogenase/Creatinine" nciodm:ExtCodeID="C79449">
          <nciodm:CDISCSynonym>Lactate Dehydrogenase/Creatinine</nciodm:CDISCSynonym>
          <nciodm:CDISCDefinition>A relative measurement (ratio or percentage) of the lactate dehydrogenase to creatinine in a biological specimen.</nciodm:CDISCDefinition>
          <nciodm:PreferredTerm>Lactate Dehydrogenase to Creatinine Ratio Measurement</nciodm:PreferredTerm>
        </EnumeratedItem>
        <EnumeratedItem CodedValue="Lactic Acid" nciodm:ExtCodeID="C79450">
          <nciodm:CDISCSynonym>Lactic Acid</nciodm:CDISCSynonym>
          <nciodm:CDISCSynonym>2-hydroxypropanoic acid</nciodm:CDISCSynonym>
          <nciodm:CDISCSynonym>Lactate</nciodm:CDISCSynonym>
          <nciodm:CDISCDefinition>A measurement of the lactic acid in a biological specimen.</nciodm:CDISCDefinition>
          <nciodm:PreferredTerm>Lactic Acid Measurement</nciodm:PreferredTerm>
        </EnumeratedItem>
        <EnumeratedItem CodedValue="Large Unstained Cells/Leukocytes" nciodm:ExtCodeID="C79467">
          <nciodm:CDISCSynonym>Large Unstained Cells/Leukocytes</nciodm:CDISCSynonym>
          <nciodm:CDISCDefinition>A relative measure (ratio or percentage) of the large unstained cells to leukocytes in a biological specimen.</nciodm:CDISCDefinition>
          <nciodm:PreferredTerm>Large Unstained Cells to Leukocytes Ratio Measurement</nciodm:PreferredTerm>
        </EnumeratedItem>
        <EnumeratedItem CodedValue="LDH Isoenzyme 1/LDH" nciodm:ExtCodeID="C79451">
          <nciodm:CDISCSynonym>LDH Isoenzyme 1/LDH</nciodm:CDISCSynonym>
          <nciodm:CDISCDefinition>A relative measurement (ratio or percentage) of the lactate dehydrogenase isoenzyme 1 to total lactate dehydrogenase in a biological specimen.</nciodm:CDISCDefinition>
          <nciodm:PreferredTerm>LDH Isoenzyme 1 to LDH Ratio Measurement</nciodm:PreferredTerm>
        </EnumeratedItem>
        <EnumeratedItem CodedValue="LDH Isoenzyme 2/LDH" nciodm:ExtCodeID="C79452">
          <nciodm:CDISCSynonym>LDH Isoenzyme 2/LDH</nciodm:CDISCSynonym>
          <nciodm:CDISCDefinition>A relative measurement (ratio or percentage) of the lactate dehydrogenase isoenzyme 2 to total lactate dehydrogenase in a biological specimen.</nciodm:CDISCDefinition>
          <nciodm:PreferredTerm>LDH Isoenzyme 2 to LDH Ratio Measurement</nciodm:PreferredTerm>
        </EnumeratedItem>
        <EnumeratedItem CodedValue="LDH Isoenzyme 3/LDH" nciodm:ExtCodeID="C79453">
          <nciodm:CDISCSynonym>LDH Isoenzyme 3/LDH</nciodm:CDISCSynonym>
          <nciodm:CDISCDefinition>A relative measurement (ratio or percentage) of the lactate dehydrogenase isoenzyme 3 to total lactate dehydrogenase in a biological specimen.</nciodm:CDISCDefinition>
          <nciodm:PreferredTerm>LDH Isoenzyme 3 to LDH Ratio Measurement</nciodm:PreferredTerm>
        </EnumeratedItem>
        <EnumeratedItem CodedValue="LDH Isoenzyme 4/LDH" nciodm:ExtCodeID="C79454">
          <nciodm:CDISCSynonym>LDH Isoenzyme 4/LDH</nciodm:CDISCSynonym>
          <nciodm:CDISCDefinition>A relative measurement (ratio or percentage) of the lactate dehydrogenase isoenzyme 4 to total lactate dehydrogenase in a biological specimen.</nciodm:CDISCDefinition>
          <nciodm:PreferredTerm>LDH Isoenzyme 4 to LDH Ratio Measurement</nciodm:PreferredTerm>
        </EnumeratedItem>
        <EnumeratedItem CodedValue="LDH Isoenzyme 5/LDH" nciodm:ExtCodeID="C79455">
          <nciodm:CDISCSynonym>LDH Isoenzyme 5/LDH</nciodm:CDISCSynonym>
          <nciodm:CDISCDefinition>A relative measurement (ratio or percentage) of the lactate dehydrogenase isoenzyme 5 to total lactate dehydrogenase in a biological specimen.</nciodm:CDISCDefinition>
          <nciodm:PreferredTerm>LDH Isoenzyme 5 to LDH Ratio Measurement</nciodm:PreferredTerm>
        </EnumeratedItem>
        <EnumeratedItem CodedValue="Leptin" nciodm:ExtCodeID="C74866">
          <nciodm:CDISCSynonym>Leptin</nciodm:CDISCSynonym>
          <nciodm:CDISCDefinition>A measurement of the leptin hormone in a biological specimen.</nciodm:CDISCDefinition>
          <nciodm:PreferredTerm>Leptin Measurement</nciodm:PreferredTerm>
        </EnumeratedItem>
        <EnumeratedItem CodedValue="Magnesium/Creatinine" nciodm:ExtCodeID="C79456">
          <nciodm:CDISCSynonym>Magnesium/Creatinine</nciodm:CDISCSynonym>
          <nciodm:CDISCDefinition>A relative measurement (ratio or percentage) of the magnesium to creatinine in a biological specimen.</nciodm:CDISCDefinition>
          <nciodm:PreferredTerm>Magnesium to Creatinine Ratio Measurement</nciodm:PreferredTerm>
        </EnumeratedItem>
        <EnumeratedItem CodedValue="Melatonin" nciodm:ExtCodeID="C74867">
          <nciodm:CDISCSynonym>Melatonin</nciodm:CDISCSynonym>
          <nciodm:CDISCDefinition>A measurement of the melatonin hormone in a biological specimen.</nciodm:CDISCDefinition>
          <nciodm:PreferredTerm>Melatonin Measurement</nciodm:PreferredTerm>
        </EnumeratedItem>
        <EnumeratedItem CodedValue="Methadone" nciodm:ExtCodeID="C74881">
          <nciodm:CDISCSynonym>Methadone</nciodm:CDISCSynonym>
          <nciodm:CDISCDefinition>A measurement of the methadone present in a biological specimen.</nciodm:CDISCDefinition>
          <nciodm:PreferredTerm>Methadone Measurement</nciodm:PreferredTerm>
        </EnumeratedItem>
        <EnumeratedItem CodedValue="Methaqualone" nciodm:ExtCodeID="C74882">
          <nciodm:CDISCSynonym>Methaqualone</nciodm:CDISCSynonym>
          <nciodm:CDISCDefinition>A measurement of the methaqualone present in a biological specimen.</nciodm:CDISCDefinition>
          <nciodm:PreferredTerm>Methaqualone Measurement</nciodm:PreferredTerm>
        </EnumeratedItem>
        <EnumeratedItem CodedValue="Morphine" nciodm:ExtCodeID="C74883">
          <nciodm:CDISCSynonym>Morphine</nciodm:CDISCSynonym>
          <nciodm:CDISCDefinition>A measurement of the morphine present in a biological specimen.</nciodm:CDISCDefinition>
          <nciodm:PreferredTerm>Morphine Measurement</nciodm:PreferredTerm>
        </EnumeratedItem>
        <EnumeratedItem CodedValue="Mu Glutathione-S-Transferase" nciodm:ExtCodeID="C79457">
          <nciodm:CDISCSynonym>Mu Glutathione-S-Transferase</nciodm:CDISCSynonym>
          <nciodm:CDISCDefinition>A measurement of the mu form of glutathione S-transferase in a biological specimen.</nciodm:CDISCDefinition>
          <nciodm:PreferredTerm>Mu Glutathione-S-Transferase Measurement</nciodm:PreferredTerm>
        </EnumeratedItem>
        <EnumeratedItem CodedValue="Mu Glutathione-S-Transferase/Creatinine" nciodm:ExtCodeID="C79458">
          <nciodm:CDISCSynonym>Mu Glutathione-S-Transferase/Creatinine</nciodm:CDISCSynonym>
          <nciodm:CDISCDefinition>A relative measurement (ratio or percentage) of the mu gamma glutamyl transpeptidase to creatinine in a biological specimen.</nciodm:CDISCDefinition>
          <nciodm:PreferredTerm>Mu Glutathione-S-Transferase to Creatinine Ratio Measurement</nciodm:PreferredTerm>
        </EnumeratedItem>
        <EnumeratedItem CodedValue="Myoglobin" nciodm:ExtCodeID="C79436">
          <nciodm:CDISCSynonym>Myoglobin</nciodm:CDISCSynonym>
          <nciodm:CDISCDefinition>A measurement of myoglobin in a biological specimen.</nciodm:CDISCDefinition>
          <nciodm:PreferredTerm>Myoglobin Measurement</nciodm:PreferredTerm>
        </EnumeratedItem>
        <EnumeratedItem CodedValue="N-Acetyl Glucosamide" nciodm:ExtCodeID="C79459">
          <nciodm:CDISCSynonym>N-Acetyl Glucosamide</nciodm:CDISCSynonym>
          <nciodm:CDISCSynonym>N-Acetyl Glucosamine</nciodm:CDISCSynonym>
          <nciodm:CDISCDefinition>A measurement of N-acetyl glucosamide in a biological specimen.</nciodm:CDISCDefinition>
          <nciodm:PreferredTerm>N-Acetyl Glucosamide Measurement</nciodm:PreferredTerm>
        </EnumeratedItem>
        <EnumeratedItem CodedValue="N-Acetyl Glucosamide/Creatinine" nciodm:ExtCodeID="C79460">
          <nciodm:CDISCSynonym>N-Acetyl Glucosamide/Creatinine</nciodm:CDISCSynonym>
          <nciodm:CDISCDefinition>A relative measurement (ratio or percentage) of the N-acetyl glucosamide to creatinine in a biological specimen.</nciodm:CDISCDefinition>
          <nciodm:PreferredTerm>N-Acetyl Glucosamide to Creatinine Ratio Measurement</nciodm:PreferredTerm>
        </EnumeratedItem>
        <EnumeratedItem CodedValue="Neuropeptide Y" nciodm:ExtCodeID="C74892">
          <nciodm:CDISCSynonym>Neuropeptide Y</nciodm:CDISCSynonym>
          <nciodm:CDISCDefinition>A measurement of the neuropeptide Y in a biological specimen.</nciodm:CDISCDefinition>
          <nciodm:PreferredTerm>Neuropeptide Y Measurement</nciodm:PreferredTerm>
        </EnumeratedItem>
        <EnumeratedItem CodedValue="Norepinephrine" nciodm:ExtCodeID="C74868">
          <nciodm:CDISCSynonym>Noradrenaline</nciodm:CDISCSynonym>
          <nciodm:CDISCSynonym>Norepinephrine</nciodm:CDISCSynonym>
          <nciodm:CDISCDefinition>A measurement of the norepinephrine hormone in a biological specimen.</nciodm:CDISCDefinition>
          <nciodm:PreferredTerm>Noradrenaline Measurement</nciodm:PreferredTerm>
        </EnumeratedItem>
        <EnumeratedItem CodedValue="Osmolality" nciodm:ExtCodeID="C74801">
          <nciodm:CDISCSynonym>Osmolality</nciodm:CDISCSynonym>
          <nciodm:CDISCDefinition>A measurement of the osmoles of solute per unit of biological specimen.</nciodm:CDISCDefinition>
          <nciodm:PreferredTerm>Osmolality Measurement</nciodm:PreferredTerm>
        </EnumeratedItem>
        <EnumeratedItem CodedValue="Oxycodone" nciodm:ExtCodeID="C74884">
          <nciodm:CDISCSynonym>Oxycodone</nciodm:CDISCSynonym>
          <nciodm:CDISCSynonym>Oxycontin</nciodm:CDISCSynonym>
          <nciodm:CDISCDefinition>A measurement of the oxycodone present in a biological specimen.</nciodm:CDISCDefinition>
          <nciodm:PreferredTerm>Oxycodone Measurement</nciodm:PreferredTerm>
        </EnumeratedItem>
        <EnumeratedItem CodedValue="Oxytocin" nciodm:ExtCodeID="C74869">
          <nciodm:CDISCSynonym>Oxytocin</nciodm:CDISCSynonym>
          <nciodm:CDISCSynonym>Oxytoxin</nciodm:CDISCSynonym>
          <nciodm:CDISCDefinition>A measurement of the oxytocin hormone in a biological specimen.</nciodm:CDISCDefinition>
          <nciodm:PreferredTerm>Oxytocin Measurement</nciodm:PreferredTerm>
        </EnumeratedItem>
        <EnumeratedItem CodedValue="Phencyclidine" nciodm:ExtCodeID="C74694">
          <nciodm:CDISCSynonym>Phencyclidine</nciodm:CDISCSynonym>
          <nciodm:CDISCSynonym>Phenylcyclohexylpiperidine</nciodm:CDISCSynonym>
          <nciodm:CDISCDefinition>A measurement of the phencyclidine present in a biological specimen.</nciodm:CDISCDefinition>
          <nciodm:PreferredTerm>Phencyclidine Measurement</nciodm:PreferredTerm>
        </EnumeratedItem>
        <EnumeratedItem CodedValue="Phenothiazine" nciodm:ExtCodeID="C74695">
          <nciodm:CDISCSynonym>Phenothiazine</nciodm:CDISCSynonym>
          <nciodm:CDISCSynonym>Dibenzothiazine</nciodm:CDISCSynonym>
          <nciodm:CDISCDefinition>A measurement of the phenothiazine present in a biological specimen.</nciodm:CDISCDefinition>
          <nciodm:PreferredTerm>Phenothiazine Measurement</nciodm:PreferredTerm>
        </EnumeratedItem>
        <EnumeratedItem CodedValue="Phosphate/Creatinine" nciodm:ExtCodeID="C79461">
          <nciodm:CDISCSynonym>Phosphate/Creatinine</nciodm:CDISCSynonym>
          <nciodm:CDISCDefinition>A relative measurement (ratio or percentage) of the phosphate to creatinine in a biological specimen.</nciodm:CDISCDefinition>
          <nciodm:PreferredTerm>Phosphate to Creatinine Ratio Measurement</nciodm:PreferredTerm>
        </EnumeratedItem>
        <EnumeratedItem CodedValue="Potassium/Creatinine" nciodm:ExtCodeID="C79462">
          <nciodm:CDISCSynonym>Potassium/Creatinine</nciodm:CDISCSynonym>
          <nciodm:CDISCDefinition>A relative measurement (ratio or percentage) of the potassium to creatinine in a biological specimen.</nciodm:CDISCDefinition>
          <nciodm:PreferredTerm>Potassium to Creatinine Ratio Measurement</nciodm:PreferredTerm>
        </EnumeratedItem>
        <EnumeratedItem CodedValue="Prolactin" nciodm:ExtCodeID="C74870">
          <nciodm:CDISCSynonym>Prolactin</nciodm:CDISCSynonym>
          <nciodm:CDISCDefinition>A measurement of the prolactin hormone in a biological specimen.</nciodm:CDISCDefinition>
          <nciodm:PreferredTerm>Prolactin Measurement</nciodm:PreferredTerm>
        </EnumeratedItem>
        <EnumeratedItem CodedValue="Propoxyphene" nciodm:ExtCodeID="C74885">
          <nciodm:CDISCSynonym>Propoxyphene</nciodm:CDISCSynonym>
          <nciodm:CDISCDefinition>A measurement of the propoxyphene present in a biological specimen.</nciodm:CDISCDefinition>
          <nciodm:PreferredTerm>Propoxyphene Measurement</nciodm:PreferredTerm>
        </EnumeratedItem>
        <EnumeratedItem CodedValue="Protein/Creatinine" nciodm:ExtCodeID="C79463">
          <nciodm:CDISCSynonym>Protein/Creatinine</nciodm:CDISCSynonym>
          <nciodm:CDISCDefinition>A relative measurement (ratio or percentage) of the protein to creatinine in a biological specimen.</nciodm:CDISCDefinition>
          <nciodm:PreferredTerm>Protein to Creatinine Ratio Measurement</nciodm:PreferredTerm>
        </EnumeratedItem>
        <EnumeratedItem CodedValue="Pseudoephedrine" nciodm:ExtCodeID="C74696">
          <nciodm:CDISCSynonym>Pseudoephedrine</nciodm:CDISCSynonym>
          <nciodm:CDISCDefinition>A measurement of the pseudoephedrine present in a biological specimen.</nciodm:CDISCDefinition>
          <nciodm:PreferredTerm>Pseudoephedrine Measurement</nciodm:PreferredTerm>
        </EnumeratedItem>
        <EnumeratedItem CodedValue="Reactive Lymphocytes" nciodm:ExtCodeID="C74629">
          <nciodm:CDISCSynonym>Reactive Lymphocytes</nciodm:CDISCSynonym>
          <nciodm:CDISCDefinition>A measurement of the reactive lymphocytes (lymphocytes which have become large due to an antigen reaction) in a biological specimen.</nciodm:CDISCDefinition>
          <nciodm:PreferredTerm>Reactive Lymphocyte Count Measurement</nciodm:PreferredTerm>
        </EnumeratedItem>
        <EnumeratedItem CodedValue="Renin" nciodm:ExtCodeID="C74893">
          <nciodm:CDISCSynonym>Renin</nciodm:CDISCSynonym>
          <nciodm:CDISCSynonym>Angiotensinogenase</nciodm:CDISCSynonym>
          <nciodm:CDISCDefinition>A measurement of the renin in a biological specimen.</nciodm:CDISCDefinition>
          <nciodm:PreferredTerm>Renin Measurement</nciodm:PreferredTerm>
        </EnumeratedItem>
        <EnumeratedItem CodedValue="Secretin" nciodm:ExtCodeID="C74871">
          <nciodm:CDISCSynonym>Secretin</nciodm:CDISCSynonym>
          <nciodm:CDISCDefinition>A measurement of the secretin hormone in a biological specimen.</nciodm:CDISCDefinition>
          <nciodm:PreferredTerm>Secretin Measurement</nciodm:PreferredTerm>
        </EnumeratedItem>
        <EnumeratedItem CodedValue="Serotonin" nciodm:ExtCodeID="C74872">
          <nciodm:CDISCSynonym>Serotonin</nciodm:CDISCSynonym>
          <nciodm:CDISCDefinition>A measurement of the serotonin hormone in a biological specimen.</nciodm:CDISCDefinition>
          <nciodm:PreferredTerm>Serotonin Measurement</nciodm:PreferredTerm>
        </EnumeratedItem>
        <EnumeratedItem CodedValue="Sodium/Creatinine" nciodm:ExtCodeID="C79464">
          <nciodm:CDISCSynonym>Sodium/Creatinine</nciodm:CDISCSynonym>
          <nciodm:CDISCDefinition>A relative measurement (ratio or percentage) of the sodium to creatinine in a biological specimen.</nciodm:CDISCDefinition>
          <nciodm:PreferredTerm>Sodium to Creatinine Ratio Measurement</nciodm:PreferredTerm>
        </EnumeratedItem>
        <EnumeratedItem CodedValue="Sorbitol Dehydrogenase" nciodm:ExtCodeID="C79465">
          <nciodm:CDISCSynonym>Sorbitol Dehydrogenase</nciodm:CDISCSynonym>
          <nciodm:CDISCDefinition>A measurement of the sorbitol dehydrogenase in a biological specimen.</nciodm:CDISCDefinition>
          <nciodm:PreferredTerm>Sorbitol Dehydrogenase Measurement</nciodm:PreferredTerm>
        </EnumeratedItem>
        <EnumeratedItem CodedValue="Thrombopoietin" nciodm:ExtCodeID="C74873">
          <nciodm:CDISCSynonym>Thrombopoietin</nciodm:CDISCSynonym>
          <nciodm:CDISCDefinition>A measurement of the thrombopoietin hormone in a biological specimen.</nciodm:CDISCDefinition>
          <nciodm:PreferredTerm>Thrombopoietin Measurement</nciodm:PreferredTerm>
        </EnumeratedItem>
        <EnumeratedItem CodedValue="Thyrotropin Releasing Hormone" nciodm:ExtCodeID="C74874">
          <nciodm:CDISCSynonym>Thyrotropin Releasing Hormone</nciodm:CDISCSynonym>
          <nciodm:CDISCSynonym>Thyrotropin Releasing Factor</nciodm:CDISCSynonym>
          <nciodm:CDISCDefinition>A measurement of the thyrotropin releasing hormone in a biological specimen.</nciodm:CDISCDefinition>
          <nciodm:PreferredTerm>Thyrotropin Releasing Hormone Measurement</nciodm:PreferredTerm>
        </EnumeratedItem>
        <EnumeratedItem CodedValue="Vanillyl Mandelic Acid" nciodm:ExtCodeID="C74875">
          <nciodm:CDISCSynonym>Vanillyl Mandelic Acid</nciodm:CDISCSynonym>
          <nciodm:CDISCSynonym>Vanilmandelic Acid</nciodm:CDISCSynonym>
          <nciodm:CDISCDefinition>A measurement of the vanillyl mandelic acid metabolite in a biological specimen.</nciodm:CDISCDefinition>
          <nciodm:PreferredTerm>Vanillyl Mandelic Acid Measurement</nciodm:PreferredTerm>
        </EnumeratedItem>
        <EnumeratedItem CodedValue="Vitamin A" nciodm:ExtCodeID="C74895">
          <nciodm:CDISCSynonym>Vitamin A</nciodm:CDISCSynonym>
          <nciodm:CDISCSynonym>Retinol</nciodm:CDISCSynonym>
          <nciodm:CDISCDefinition>A measurement of the Vitamin A in a biological specimen.</nciodm:CDISCDefinition>
          <nciodm:PreferredTerm>Vitamin A Measurement</nciodm:PreferredTerm>
        </EnumeratedItem>
        <EnumeratedItem CodedValue="Thiamine" nciodm:ExtCodeID="C74896">
          <nciodm:CDISCSynonym>Thiamine</nciodm:CDISCSynonym>
          <nciodm:CDISCSynonym>Vitamin B1</nciodm:CDISCSynonym>
          <nciodm:CDISCDefinition>A measurement of the thiamine in a biological specimen.</nciodm:CDISCDefinition>
          <nciodm:PreferredTerm>Vitamin B1 Measurement</nciodm:PreferredTerm>
        </EnumeratedItem>
        <EnumeratedItem CodedValue="Vitamin B17" nciodm:ExtCodeID="C74897">
          <nciodm:CDISCSynonym>Vitamin B17</nciodm:CDISCSynonym>
          <nciodm:CDISCSynonym>Amygdalin</nciodm:CDISCSynonym>
          <nciodm:CDISCDefinition>A measurement of the Vitamin B17 in a serum specimen.</nciodm:CDISCDefinition>
          <nciodm:PreferredTerm>Vitamin B17 Measurement</nciodm:PreferredTerm>
        </EnumeratedItem>
        <EnumeratedItem CodedValue="Riboflavin" nciodm:ExtCodeID="C74898">
          <nciodm:CDISCSynonym>Riboflavin</nciodm:CDISCSynonym>
          <nciodm:CDISCSynonym>Vitamin B2</nciodm:CDISCSynonym>
          <nciodm:CDISCDefinition>A measurement of the riboflavin in a biological specimen.</nciodm:CDISCDefinition>
          <nciodm:PreferredTerm>Vitamin B2 Measurement</nciodm:PreferredTerm>
        </EnumeratedItem>
        <EnumeratedItem CodedValue="Niacin" nciodm:ExtCodeID="C74899">
          <nciodm:CDISCSynonym>Niacin</nciodm:CDISCSynonym>
          <nciodm:CDISCSynonym>Vitamin B3</nciodm:CDISCSynonym>
          <nciodm:CDISCDefinition>A measurement of the niacin in a biological specimen.</nciodm:CDISCDefinition>
          <nciodm:PreferredTerm>Vitamin B3 Measurement</nciodm:PreferredTerm>
        </EnumeratedItem>
        <EnumeratedItem CodedValue="Vitamin B5" nciodm:ExtCodeID="C74900">
          <nciodm:CDISCSynonym>Vitamin B5</nciodm:CDISCSynonym>
          <nciodm:CDISCSynonym>Pantothenic Acid</nciodm:CDISCSynonym>
          <nciodm:CDISCDefinition>A measurement of the Vitamin B5 in a biological specimen.</nciodm:CDISCDefinition>
          <nciodm:PreferredTerm>Vitamin B5 Measurement</nciodm:PreferredTerm>
        </EnumeratedItem>
        <EnumeratedItem CodedValue="Vitamin B6" nciodm:ExtCodeID="C74901">
          <nciodm:CDISCSynonym>Vitamin B6</nciodm:CDISCSynonym>
          <nciodm:CDISCSynonym>Pyridoxine</nciodm:CDISCSynonym>
          <nciodm:CDISCDefinition>A measurement of the Vitamin B6 in a biological specimen.</nciodm:CDISCDefinition>
          <nciodm:PreferredTerm>Vitamin B6 Measurement</nciodm:PreferredTerm>
        </EnumeratedItem>
        <EnumeratedItem CodedValue="Vitamin B7" nciodm:ExtCodeID="C74902">
          <nciodm:CDISCSynonym>Vitamin B7</nciodm:CDISCSynonym>
          <nciodm:CDISCSynonym>Biotin</nciodm:CDISCSynonym>
          <nciodm:CDISCDefinition>A measurement of the Vitamin B7 in a biological specimen.</nciodm:CDISCDefinition>
          <nciodm:PreferredTerm>Vitamin B7 Measurement</nciodm:PreferredTerm>
        </EnumeratedItem>
        <EnumeratedItem CodedValue="Vitamin C" nciodm:ExtCodeID="C74903">
          <nciodm:CDISCSynonym>Vitamin C</nciodm:CDISCSynonym>
          <nciodm:CDISCSynonym>Ascorbic Acid</nciodm:CDISCSynonym>
          <nciodm:CDISCDefinition>A measurement of the Vitamin C in a biological specimen.</nciodm:CDISCDefinition>
          <nciodm:PreferredTerm>Vitamin C Measurement</nciodm:PreferredTerm>
        </EnumeratedItem>
        <EnumeratedItem CodedValue="Vitamin D2" nciodm:ExtCodeID="C74904">
          <nciodm:CDISCSynonym>Vitamin D2</nciodm:CDISCSynonym>
          <nciodm:CDISCSynonym>Ergocalciferol</nciodm:CDISCSynonym>
          <nciodm:CDISCDefinition>A measurement of the Vitamin D2 in a biological specimen.</nciodm:CDISCDefinition>
          <nciodm:PreferredTerm>Vitamin D2 Measurement</nciodm:PreferredTerm>
        </EnumeratedItem>
        <EnumeratedItem CodedValue="Vitamin D3" nciodm:ExtCodeID="C74905">
          <nciodm:CDISCSynonym>Vitamin D3</nciodm:CDISCSynonym>
          <nciodm:CDISCSynonym>Cholecalciferol</nciodm:CDISCSynonym>
          <nciodm:CDISCDefinition>A measurement of the Vitamin D3 in a biological specimen.</nciodm:CDISCDefinition>
          <nciodm:PreferredTerm>Vitamin D3 Measurement</nciodm:PreferredTerm>
        </EnumeratedItem>
        <EnumeratedItem CodedValue="Vitamin E" nciodm:ExtCodeID="C74906">
          <nciodm:CDISCSynonym>Vitamin E</nciodm:CDISCSynonym>
          <nciodm:CDISCSynonym>Tocopherol</nciodm:CDISCSynonym>
          <nciodm:CDISCDefinition>A measurement of the Vitamin E in a biological specimen.</nciodm:CDISCDefinition>
          <nciodm:PreferredTerm>Vitamin E Measurement</nciodm:PreferredTerm>
        </EnumeratedItem>
        <EnumeratedItem CodedValue="Vitamin K" nciodm:ExtCodeID="C74907">
          <nciodm:CDISCSynonym>Vitamin K</nciodm:CDISCSynonym>
          <nciodm:CDISCSynonym>Naphthoquinone</nciodm:CDISCSynonym>
          <nciodm:CDISCDefinition>A measurement of the Vitamin K in a biological specimen.</nciodm:CDISCDefinition>
          <nciodm:PreferredTerm>Vitamin K Measurement</nciodm:PreferredTerm>
        </EnumeratedItem>
        <EnumeratedItem CodedValue="Volume" nciodm:ExtCodeID="C74720">
          <nciodm:CDISCSynonym>Volume</nciodm:CDISCSynonym>
          <nciodm:CDISCDefinition>A measurement of the volume of a biological specimen.</nciodm:CDISCDefinition>
          <nciodm:PreferredTerm>Volume Measurement</nciodm:PreferredTerm>
        </EnumeratedItem>
        <EnumeratedItem CodedValue="Alpha-1 Antitrypsin" nciodm:ExtCodeID="C80167">
          <nciodm:CDISCSynonym>Alpha-1 Antitrypsin</nciodm:CDISCSynonym>
          <nciodm:CDISCSynonym>Serum Trypsin Inhibitor</nciodm:CDISCSynonym>
          <nciodm:CDISCDefinition>A measurement of the alpha-1 antitrypsin in a biological specimen.</nciodm:CDISCDefinition>
          <nciodm:PreferredTerm>Alpha-1 Antitrypsin Measurement</nciodm:PreferredTerm>
        </EnumeratedItem>
        <EnumeratedItem CodedValue="Alpha-2 Macroglobulin" nciodm:ExtCodeID="C80168">
          <nciodm:CDISCSynonym>Alpha-2 Macroglobulin</nciodm:CDISCSynonym>
          <nciodm:CDISCDefinition>A measurement of the alpha-2 macroglobulin in a biological specimen.</nciodm:CDISCDefinition>
          <nciodm:PreferredTerm>Alpha-2 Macroglobulin Measurement</nciodm:PreferredTerm>
        </EnumeratedItem>
        <EnumeratedItem CodedValue="Angiotensin Converting Enzyme" nciodm:ExtCodeID="C80169">
          <nciodm:CDISCSynonym>Angiotensin Converting Enzyme</nciodm:CDISCSynonym>
          <nciodm:CDISCDefinition>A measurement of the angiotensin converting enzyme in a biological specimen.</nciodm:CDISCDefinition>
          <nciodm:PreferredTerm>Angiotensin Converting Enzyme Measurement</nciodm:PreferredTerm>
        </EnumeratedItem>
        <EnumeratedItem CodedValue="Acid Phosphatase" nciodm:ExtCodeID="C80163">
          <nciodm:CDISCSynonym>Acid Phosphatase</nciodm:CDISCSynonym>
          <nciodm:CDISCDefinition>A measurement of the acid phosphatase in a biological specimen.</nciodm:CDISCDefinition>
          <nciodm:PreferredTerm>Acid Phosphatase Measurement</nciodm:PreferredTerm>
        </EnumeratedItem>
        <EnumeratedItem CodedValue="Antimitochondrial Antibodies" nciodm:ExtCodeID="C81975">
          <nciodm:CDISCSynonym>Antimitochondrial Antibodies</nciodm:CDISCSynonym>
          <nciodm:CDISCSynonym>Mitochondrial Antibody</nciodm:CDISCSynonym>
          <nciodm:CDISCDefinition>A measurement of the antimitochondrial antibodies in a biological specimen.</nciodm:CDISCDefinition>
          <nciodm:PreferredTerm>Antimitochondrial Antibody Measurement</nciodm:PreferredTerm>
        </EnumeratedItem>
        <EnumeratedItem CodedValue="Amyloid Beta 42" nciodm:ExtCodeID="C84809">
          <nciodm:CDISCSynonym>Amyloid Beta 42</nciodm:CDISCSynonym>
          <nciodm:CDISCSynonym>Amyloid Beta 42 Protein</nciodm:CDISCSynonym>
          <nciodm:CDISCDefinition>A measurement of the 42 amino acid amyloid beta protein isoform in a biological specimen.</nciodm:CDISCDefinition>
          <nciodm:PreferredTerm>Beta Amyloid 42 Measurement</nciodm:PreferredTerm>
        </EnumeratedItem>
        <EnumeratedItem CodedValue="Amyloid, Beta" nciodm:ExtCodeID="C81999">
          <nciodm:CDISCSynonym>Amyloid, Beta</nciodm:CDISCSynonym>
          <nciodm:CDISCSynonym>Beta Amyloid</nciodm:CDISCSynonym>
          <nciodm:CDISCDefinition>A measurement of the total amyloid beta in a biological specimen.</nciodm:CDISCDefinition>
          <nciodm:PreferredTerm>Beta Amyloid Measurement</nciodm:PreferredTerm>
        </EnumeratedItem>
        <EnumeratedItem CodedValue="Amyloid P" nciodm:ExtCodeID="C81998">
          <nciodm:CDISCSynonym>Amyloid P</nciodm:CDISCSynonym>
          <nciodm:CDISCDefinition>A measurement of the total amyloid P in a biological specimen.</nciodm:CDISCDefinition>
          <nciodm:PreferredTerm>Amyloid P Measurement</nciodm:PreferredTerm>
        </EnumeratedItem>
        <EnumeratedItem CodedValue="Antiglobulin Test, Direct" nciodm:ExtCodeID="C81974">
          <nciodm:CDISCSynonym>Antiglobulin Test, Direct</nciodm:CDISCSynonym>
          <nciodm:CDISCSynonym>Direct Coombs Test</nciodm:CDISCSynonym>
          <nciodm:CDISCDefinition>A measurement of the antibody or complement-coated erythrocytes in a blood specimen in vivo.</nciodm:CDISCDefinition>
          <nciodm:PreferredTerm>Direct Antiglobulin Test</nciodm:PreferredTerm>
        </EnumeratedItem>
        <EnumeratedItem CodedValue="Antithrombin" nciodm:ExtCodeID="C81958">
          <nciodm:CDISCSynonym>Antithrombin</nciodm:CDISCSynonym>
          <nciodm:CDISCSynonym>Antithrombin III</nciodm:CDISCSynonym>
          <nciodm:CDISCDefinition>A measurement of the antithrombin activity in a biological specimen.</nciodm:CDISCDefinition>
          <nciodm:PreferredTerm>Antithrombin Measurement</nciodm:PreferredTerm>
        </EnumeratedItem>
        <EnumeratedItem CodedValue="Antithrombin Antigen" nciodm:ExtCodeID="C81977">
          <nciodm:CDISCSynonym>Antithrombin Antigen</nciodm:CDISCSynonym>
          <nciodm:CDISCSynonym>Antithrombin III Antigen</nciodm:CDISCSynonym>
          <nciodm:CDISCDefinition>A measurement of the antithrombin antigen in a biological specimen.</nciodm:CDISCDefinition>
          <nciodm:PreferredTerm>Antithrombin Antigen Measurement</nciodm:PreferredTerm>
        </EnumeratedItem>
        <EnumeratedItem CodedValue="Apolipoprotein AII" nciodm:ExtCodeID="C82000">
          <nciodm:CDISCSynonym>Apolipoprotein AII</nciodm:CDISCSynonym>
          <nciodm:CDISCDefinition>A measurement of the apolipoprotein AII in a biological specimen.</nciodm:CDISCDefinition>
          <nciodm:PreferredTerm>Apolipoprotein AII Measurement</nciodm:PreferredTerm>
        </EnumeratedItem>
        <EnumeratedItem CodedValue="Apolipoprotein CIII" nciodm:ExtCodeID="C82001">
          <nciodm:CDISCSynonym>Apolipoprotein CIII</nciodm:CDISCSynonym>
          <nciodm:CDISCDefinition>A measurement of the apolipoprotein CIII in a biological specimen.</nciodm:CDISCDefinition>
          <nciodm:PreferredTerm>Apolipoprotein CIII Measurement</nciodm:PreferredTerm>
        </EnumeratedItem>
        <EnumeratedItem CodedValue="Apolipoprotein E" nciodm:ExtCodeID="C82002">
          <nciodm:CDISCSynonym>Apolipoprotein E</nciodm:CDISCSynonym>
          <nciodm:CDISCDefinition>A measurement of the apolipoprotein E in a biological specimen.</nciodm:CDISCDefinition>
          <nciodm:PreferredTerm>Apolipoprotein E Measurement</nciodm:PreferredTerm>
        </EnumeratedItem>
        <EnumeratedItem CodedValue="Apolipoprotein H" nciodm:ExtCodeID="C82003">
          <nciodm:CDISCSynonym>Apolipoprotein H</nciodm:CDISCSynonym>
          <nciodm:CDISCDefinition>A measurement of the apolipoprotein H in a biological specimen.</nciodm:CDISCDefinition>
          <nciodm:PreferredTerm>Apolipoprotein H Measurement</nciodm:PreferredTerm>
        </EnumeratedItem>
        <EnumeratedItem CodedValue="Specimen Appearance" nciodm:ExtCodeID="C25377">
          <nciodm:CDISCSynonym>Specimen Appearance</nciodm:CDISCSynonym>
          <nciodm:CDISCDefinition>The outward or visible aspect of a specimen.</nciodm:CDISCDefinition>
          <nciodm:PreferredTerm>Appearance</nciodm:PreferredTerm>
        </EnumeratedItem>
        <EnumeratedItem CodedValue="Anti-Saccharomyces cerevisiae Antibody" nciodm:ExtCodeID="C81976">
          <nciodm:CDISCSynonym>Anti-Saccharomyces cerevisiae Antibody</nciodm:CDISCSynonym>
          <nciodm:CDISCDefinition>A measurement of the anti-Saccharomyces cerevisiae antibody in a biological specimen.</nciodm:CDISCDefinition>
          <nciodm:PreferredTerm>Anti-Saccharomyces cerevisiae Antibody Measurement</nciodm:PreferredTerm>
        </EnumeratedItem>
        <EnumeratedItem CodedValue="Aspartate Aminotransferase Antigen" nciodm:ExtCodeID="C81978">
          <nciodm:CDISCSynonym>Aspartate Aminotransferase Antigen</nciodm:CDISCSynonym>
          <nciodm:CDISCSynonym>SGOT Antigen</nciodm:CDISCSynonym>
          <nciodm:CDISCDefinition>A measurement of the aspartate aminotransferase antigen in a biological specimen.</nciodm:CDISCDefinition>
          <nciodm:PreferredTerm>Aspartate Aminotransferase Antigen Measurement</nciodm:PreferredTerm>
        </EnumeratedItem>
        <EnumeratedItem CodedValue="Beta-2 Glycoprotein Antibody" nciodm:ExtCodeID="C81979">
          <nciodm:CDISCSynonym>Beta-2 Glycoprotein Antibody</nciodm:CDISCSynonym>
          <nciodm:CDISCDefinition>A measurement of the beta-2 glycoprotein antibody in a biological specimen.</nciodm:CDISCDefinition>
          <nciodm:PreferredTerm>Beta-2 Glycoprotein Antibody Measurement</nciodm:PreferredTerm>
        </EnumeratedItem>
        <EnumeratedItem CodedValue="Beta-2 Microglobulin" nciodm:ExtCodeID="C81980">
          <nciodm:CDISCSynonym>Beta-2 Microglobulin</nciodm:CDISCSynonym>
          <nciodm:CDISCDefinition>A measurement of the beta-2 microglobulin in a biological specimen.</nciodm:CDISCDefinition>
          <nciodm:PreferredTerm>Beta-2 Microglobulin Measurement</nciodm:PreferredTerm>
        </EnumeratedItem>
        <EnumeratedItem CodedValue="Brain-Derived Neurotrophic Factor" nciodm:ExtCodeID="C82004">
          <nciodm:CDISCSynonym>Brain-Derived Neurotrophic Factor</nciodm:CDISCSynonym>
          <nciodm:CDISCDefinition>A measurement of the brain-derived neurotrophic factor in a biological specimen.</nciodm:CDISCDefinition>
          <nciodm:PreferredTerm>Brain-Derived Neurotrophic Factor Measurement</nciodm:PreferredTerm>
        </EnumeratedItem>
        <EnumeratedItem CodedValue="ProB-type Natriuretic Peptide" nciodm:ExtCodeID="C82032">
          <nciodm:CDISCSynonym>ProB-type Natriuretic Peptide</nciodm:CDISCSynonym>
          <nciodm:CDISCSynonym>proBNP</nciodm:CDISCSynonym>
          <nciodm:CDISCSynonym>Pro-Brain Natriuretic Peptide</nciodm:CDISCSynonym>
          <nciodm:CDISCDefinition>A measurement of the proB-type natriuretic peptide in a biological specimen.</nciodm:CDISCDefinition>
          <nciodm:PreferredTerm>ProB-Type Natriuretic Peptide Measurement</nciodm:PreferredTerm>
        </EnumeratedItem>
        <EnumeratedItem CodedValue="Complement C1q Antibody" nciodm:ExtCodeID="C80173">
          <nciodm:CDISCSynonym>Complement C1q Antibody</nciodm:CDISCSynonym>
          <nciodm:CDISCDefinition>A measurement of the complement C1q antibody in a biological specimen.</nciodm:CDISCDefinition>
          <nciodm:PreferredTerm>Complement C1q Antibody Measurement</nciodm:PreferredTerm>
        </EnumeratedItem>
        <EnumeratedItem CodedValue="Complement C3" nciodm:ExtCodeID="C80174">
          <nciodm:CDISCSynonym>Complement C3</nciodm:CDISCSynonym>
          <nciodm:CDISCDefinition>A measurement of the complement C3 in a biological specimen.</nciodm:CDISCDefinition>
          <nciodm:PreferredTerm>Complement C3 Measurement</nciodm:PreferredTerm>
        </EnumeratedItem>
        <EnumeratedItem CodedValue="Complement C3a" nciodm:ExtCodeID="C80175">
          <nciodm:CDISCSynonym>Complement C3a</nciodm:CDISCSynonym>
          <nciodm:CDISCSynonym>ASP, Complement C3 DesArg, Acetylation-stimulating Protein</nciodm:CDISCSynonym>
          <nciodm:CDISCDefinition>A measurement of the complement C3a in a biological specimen.</nciodm:CDISCDefinition>
          <nciodm:PreferredTerm>Complement C3a Measurement</nciodm:PreferredTerm>
        </EnumeratedItem>
        <EnumeratedItem CodedValue="Complement C3b" nciodm:ExtCodeID="C80176">
          <nciodm:CDISCSynonym>Complement C3b</nciodm:CDISCSynonym>
          <nciodm:CDISCDefinition>A measurement of the complement C3b in a biological specimen.</nciodm:CDISCDefinition>
          <nciodm:PreferredTerm>Complement C3b Measurement</nciodm:PreferredTerm>
        </EnumeratedItem>
        <EnumeratedItem CodedValue="Complement C4" nciodm:ExtCodeID="C80177">
          <nciodm:CDISCSynonym>Complement C4</nciodm:CDISCSynonym>
          <nciodm:CDISCDefinition>A measurement of the complement C4 in a biological specimen.</nciodm:CDISCDefinition>
          <nciodm:PreferredTerm>Complement C4 Measurement</nciodm:PreferredTerm>
        </EnumeratedItem>
        <EnumeratedItem CodedValue="Complement C4a" nciodm:ExtCodeID="C80178">
          <nciodm:CDISCSynonym>Complement C4a</nciodm:CDISCSynonym>
          <nciodm:CDISCDefinition>A measurement of the complement C4a in a biological specimen.</nciodm:CDISCDefinition>
          <nciodm:PreferredTerm>Complement C4a Measurement</nciodm:PreferredTerm>
        </EnumeratedItem>
        <EnumeratedItem CodedValue="Complement C5a" nciodm:ExtCodeID="C80179">
          <nciodm:CDISCSynonym>Complement C5a</nciodm:CDISCSynonym>
          <nciodm:CDISCDefinition>A measurement of the complement C5a in a biological specimen.</nciodm:CDISCDefinition>
          <nciodm:PreferredTerm>Complement C5a Measurement</nciodm:PreferredTerm>
        </EnumeratedItem>
        <EnumeratedItem CodedValue="Cancer Antigen 125" nciodm:ExtCodeID="C81981">
          <nciodm:CDISCSynonym>Cancer Antigen 125</nciodm:CDISCSynonym>
          <nciodm:CDISCDefinition>A measurement of the cancer antigen 125 in a biological specimen.</nciodm:CDISCDefinition>
          <nciodm:PreferredTerm>Cancer Antigen 125 Measurement</nciodm:PreferredTerm>
        </EnumeratedItem>
        <EnumeratedItem CodedValue="Cancer Antigen 19-9" nciodm:ExtCodeID="C81982">
          <nciodm:CDISCSynonym>Cancer Antigen 19-9</nciodm:CDISCSynonym>
          <nciodm:CDISCDefinition>A measurement of the cancer antigen 18-9 in a biological specimen.</nciodm:CDISCDefinition>
          <nciodm:PreferredTerm>Cancer Antigen 19-9 Measurement</nciodm:PreferredTerm>
        </EnumeratedItem>
        <EnumeratedItem CodedValue="Calcium, Ionized" nciodm:ExtCodeID="C81948">
          <nciodm:CDISCSynonym>Calcium, Ionized</nciodm:CDISCSynonym>
          <nciodm:CDISCDefinition>A measurement of the ionized calcium in a biological specimen.</nciodm:CDISCDefinition>
          <nciodm:PreferredTerm>Ionized Calcium Measurement</nciodm:PreferredTerm>
        </EnumeratedItem>
        <EnumeratedItem CodedValue="Calprotectin" nciodm:ExtCodeID="C82005">
          <nciodm:CDISCSynonym>Calprotectin</nciodm:CDISCSynonym>
          <nciodm:CDISCDefinition>A measurement of the calprotectin in a biological specimen.</nciodm:CDISCDefinition>
          <nciodm:PreferredTerm>Calprotectin Measurement</nciodm:PreferredTerm>
        </EnumeratedItem>
        <EnumeratedItem CodedValue="Complement Bb" nciodm:ExtCodeID="C80172">
          <nciodm:CDISCSynonym>Complement Bb</nciodm:CDISCSynonym>
          <nciodm:CDISCDefinition>A measurement of the complement Bb in a biological specimen.</nciodm:CDISCDefinition>
          <nciodm:PreferredTerm>Complement Bb Measurement</nciodm:PreferredTerm>
        </EnumeratedItem>
        <EnumeratedItem CodedValue="CD40" nciodm:ExtCodeID="C82006">
          <nciodm:CDISCSynonym>CD40</nciodm:CDISCSynonym>
          <nciodm:CDISCDefinition>A measurement of the CD40 in a biological specimen.</nciodm:CDISCDefinition>
          <nciodm:PreferredTerm>CD40 Measurement</nciodm:PreferredTerm>
        </EnumeratedItem>
        <EnumeratedItem CodedValue="CD40 Ligand" nciodm:ExtCodeID="C82007">
          <nciodm:CDISCSynonym>CD40 Ligand</nciodm:CDISCSynonym>
          <nciodm:CDISCDefinition>A measurement of the CD40 ligand in a biological specimen.</nciodm:CDISCDefinition>
          <nciodm:PreferredTerm>CD40 Ligand Measurement</nciodm:PreferredTerm>
        </EnumeratedItem>
        <EnumeratedItem CodedValue="Carcinoembryonic Antigen" nciodm:ExtCodeID="C81983">
          <nciodm:CDISCSynonym>Carcinoembryonic Antigen</nciodm:CDISCSynonym>
          <nciodm:CDISCDefinition>A measurement of the carcinoembryonic antigen in a biological specimen.</nciodm:CDISCDefinition>
          <nciodm:PreferredTerm>Carcinoembryonic Antigen Measurement</nciodm:PreferredTerm>
        </EnumeratedItem>
        <EnumeratedItem CodedValue="Cholesterol/HDL-Cholesterol" nciodm:ExtCodeID="C80171">
          <nciodm:CDISCSynonym>Cholesterol/HDL-Cholesterol</nciodm:CDISCSynonym>
          <nciodm:CDISCDefinition>A relative measurement (ratio or percentage) of total cholesterol to high-density lipoprotein cholesterol (HDL-C) in a blood specimen.</nciodm:CDISCDefinition>
          <nciodm:PreferredTerm>Cholesterol to HDL-Cholesterol Ratio Measurement</nciodm:PreferredTerm>
        </EnumeratedItem>
        <EnumeratedItem CodedValue="Complement Total" nciodm:ExtCodeID="C80160">
          <nciodm:CDISCSynonym>Complement Total</nciodm:CDISCSynonym>
          <nciodm:CDISCSynonym>CH50</nciodm:CDISCSynonym>
          <nciodm:CDISCSynonym>Total Hemolytic Complement</nciodm:CDISCSynonym>
          <nciodm:CDISCDefinition>A measurement of the total complement in a biological specimen.</nciodm:CDISCDefinition>
          <nciodm:PreferredTerm>Complement Measurement</nciodm:PreferredTerm>
        </EnumeratedItem>
        <EnumeratedItem CodedValue="Type I Collagen C-Telopeptides" nciodm:ExtCodeID="C82038">
          <nciodm:CDISCSynonym>Type I Collagen C-Telopeptides</nciodm:CDISCSynonym>
          <nciodm:CDISCSynonym>Type I Collagen X-linked C-telopeptide</nciodm:CDISCSynonym>
          <nciodm:CDISCDefinition>A measurement of the type I collagen C-telopeptides in a biological specimen.</nciodm:CDISCDefinition>
          <nciodm:PreferredTerm>Type I Collagen C-Telopeptide Measurement</nciodm:PreferredTerm>
        </EnumeratedItem>
        <EnumeratedItem CodedValue="Type II Collagen C-Telopeptides" nciodm:ExtCodeID="C82040">
          <nciodm:CDISCSynonym>Type II Collagen C-Telopeptides</nciodm:CDISCSynonym>
          <nciodm:CDISCDefinition>A measurement of the type II collagen C-telopeptides in a biological specimen.</nciodm:CDISCDefinition>
          <nciodm:PreferredTerm>Type II Collagen C-Telopeptide Measurement</nciodm:PreferredTerm>
        </EnumeratedItem>
        <EnumeratedItem CodedValue="Starch Crystals" nciodm:ExtCodeID="C81951">
          <nciodm:CDISCSynonym>Starch Crystals</nciodm:CDISCSynonym>
          <nciodm:CDISCDefinition>A measurement of the starch crystals in a biological specimen.</nciodm:CDISCDefinition>
          <nciodm:PreferredTerm>Starch Crystal Measurement</nciodm:PreferredTerm>
        </EnumeratedItem>
        <EnumeratedItem CodedValue="D-Dimer" nciodm:ExtCodeID="C82621">
          <nciodm:CDISCSynonym>D-Dimer</nciodm:CDISCSynonym>
          <nciodm:CDISCDefinition>A measurement of the d-dimers in a biological specimen.</nciodm:CDISCDefinition>
          <nciodm:PreferredTerm>D-Dimer Measurement</nciodm:PreferredTerm>
        </EnumeratedItem>
        <EnumeratedItem CodedValue="Anti-DNA Antibodies" nciodm:ExtCodeID="C81973">
          <nciodm:CDISCSynonym>Anti-DNA Antibodies</nciodm:CDISCSynonym>
          <nciodm:CDISCSynonym>Anti-ds-DNA Antibodies</nciodm:CDISCSynonym>
          <nciodm:CDISCDefinition>A measurement of the anti-DNA antibodies in a biological specimen.</nciodm:CDISCDefinition>
          <nciodm:PreferredTerm>Anti-DNA Antibody Measurement</nciodm:PreferredTerm>
        </EnumeratedItem>
        <EnumeratedItem CodedValue="Epidermal Growth Factor" nciodm:ExtCodeID="C82009">
          <nciodm:CDISCSynonym>Epidermal Growth Factor</nciodm:CDISCSynonym>
          <nciodm:CDISCDefinition>A measurement of the epidermal growth factor in a biological specimen.</nciodm:CDISCDefinition>
          <nciodm:PreferredTerm>Epidermal Growth Factor Measurement</nciodm:PreferredTerm>
        </EnumeratedItem>
        <EnumeratedItem CodedValue="Pancreatic Elastase 1" nciodm:ExtCodeID="C82028">
          <nciodm:CDISCSynonym>Pancreatic Elastase 1</nciodm:CDISCSynonym>
          <nciodm:CDISCDefinition>A measurement of the pancreatic elastase 1 in a biological specimen.</nciodm:CDISCDefinition>
          <nciodm:PreferredTerm>Pancreatic Elastase Measurement</nciodm:PreferredTerm>
        </EnumeratedItem>
        <EnumeratedItem CodedValue="Pancreatic Elastase 1, Polymorphonuclear" nciodm:ExtCodeID="C82029">
          <nciodm:CDISCSynonym>Pancreatic Elastase 1, Polymorphonuclear</nciodm:CDISCSynonym>
          <nciodm:CDISCDefinition>A measurement of the polymorphonuclear pancreatic elastase 1 in a biological specimen.</nciodm:CDISCDefinition>
          <nciodm:PreferredTerm>Polymorphonuclear Pancreatic Elastase Measurement</nciodm:PreferredTerm>
        </EnumeratedItem>
        <EnumeratedItem CodedValue="Neutrophil Elastase" nciodm:ExtCodeID="C82026">
          <nciodm:CDISCSynonym>Neutrophil Elastase</nciodm:CDISCSynonym>
          <nciodm:CDISCDefinition>A measurement of the neutrophil elastase in a biological specimen.</nciodm:CDISCDefinition>
          <nciodm:PreferredTerm>Neutrophil Elastase Measurement</nciodm:PreferredTerm>
        </EnumeratedItem>
        <EnumeratedItem CodedValue="Neutrophil Elastase, Polymorphonuclear" nciodm:ExtCodeID="C82027">
          <nciodm:CDISCSynonym>Neutrophil Elastase, Polymorphonuclear</nciodm:CDISCSynonym>
          <nciodm:CDISCDefinition>A measurement of the polymorphonuclear neutrophil elastase in a biological specimen.</nciodm:CDISCDefinition>
          <nciodm:PreferredTerm>Polymorphonuclear Neutrophil Elastase Measurement</nciodm:PreferredTerm>
        </EnumeratedItem>
        <EnumeratedItem CodedValue="Epith Neutrophil-Activating Peptide 78" nciodm:ExtCodeID="C82010">
          <nciodm:CDISCSynonym>Epith Neutrophil-Activating Peptide 78</nciodm:CDISCSynonym>
          <nciodm:CDISCDefinition>A measurement of the epithelial neutrophil-activating peptide in a biological specimen.</nciodm:CDISCDefinition>
          <nciodm:PreferredTerm>Epithelial Neutrophil-Activating Peptide 78 Measurement</nciodm:PreferredTerm>
        </EnumeratedItem>
        <EnumeratedItem CodedValue="Endothelin-1" nciodm:ExtCodeID="C82008">
          <nciodm:CDISCSynonym>Endothelin-1</nciodm:CDISCSynonym>
          <nciodm:CDISCDefinition>A measurement of the endothelin-1 in a biological specimen.</nciodm:CDISCDefinition>
          <nciodm:PreferredTerm>Endothelin-1 Measurement</nciodm:PreferredTerm>
        </EnumeratedItem>
        <EnumeratedItem CodedValue="Extracell Newly Ident RAGE Bind Protein" nciodm:ExtCodeID="C82011">
          <nciodm:CDISCSynonym>Extracell Newly Ident RAGE Bind Protein</nciodm:CDISCSynonym>
          <nciodm:CDISCSynonym>S100 Calcium Binding Protein A12</nciodm:CDISCSynonym>
          <nciodm:CDISCDefinition>A measurement of the extracellular newly identified RAGE (receptor for advanced glycation end products) binding protein in a biological specimen.</nciodm:CDISCDefinition>
          <nciodm:PreferredTerm>Extracell Newly Ident RAGE Bind Protein Measurement</nciodm:PreferredTerm>
        </EnumeratedItem>
        <EnumeratedItem CodedValue="Eosinophilic Metamyelocytes" nciodm:ExtCodeID="C84819">
          <nciodm:CDISCSynonym>Eosinophilic Metamyelocytes</nciodm:CDISCSynonym>
          <nciodm:CDISCDefinition>A measurement of the eosinphilic metamyelocytes in a biological specimen.</nciodm:CDISCDefinition>
          <nciodm:PreferredTerm>Eosinophilic Metamyelocyte Count</nciodm:PreferredTerm>
        </EnumeratedItem>
        <EnumeratedItem CodedValue="Eosinophilic Myelocytes" nciodm:ExtCodeID="C84821">
          <nciodm:CDISCSynonym>Eosinophilic Myelocytes</nciodm:CDISCSynonym>
          <nciodm:CDISCDefinition>A measurement of the eosinophilic myelocytes in a biological specimen.</nciodm:CDISCDefinition>
          <nciodm:PreferredTerm>Eosinophilic Myelocyte Count</nciodm:PreferredTerm>
        </EnumeratedItem>
        <EnumeratedItem CodedValue="Eotaxin-1" nciodm:ExtCodeID="C81952">
          <nciodm:CDISCSynonym>Eotaxin-1</nciodm:CDISCSynonym>
          <nciodm:CDISCSynonym>Chemokine Ligand 11</nciodm:CDISCSynonym>
