<CodeList xmlns="http://www.cdisc.org/ns/odm/v1.3" xmlns:nciodm="http://ncicb.nci.nih.gov/xml/odm/EVS/CDISC" xmlns:xs="http://www.w3.org/2001/XMLSchema-instance" OID="CL.C96781.RSTEST" Name="Tumor Response Assessment Test Name" DataType="text" nciodm:ExtCodeID="C96781" nciodm:CodeListExtensible="Yes">
        <Description>
          <TranslatedText xml:lang="en">Terminology relevant to the test names that describe an assessment of tumor response to treatment or therapy.</TranslatedText>
        </Description>
        <EnumeratedItem CodedValue="Best Overall Response" nciodm:ExtCodeID="C94536">
          <nciodm:CDISCSynonym>Best Overall Response</nciodm:CDISCSynonym>
          <nciodm:CDISCSynonym>Best Response</nciodm:CDISCSynonym>
          <nciodm:CDISCDefinition>An assessment of the most clinically favorable overall response of the disease to the therapy.</nciodm:CDISCDefinition>
          <nciodm:PreferredTerm>Best Overall Response</nciodm:PreferredTerm>
        </EnumeratedItem>
        <EnumeratedItem CodedValue="Non-Radiological Progression" nciodm:ExtCodeID="C96608">
          <nciodm:CDISCSynonym>Non-Radiological Progression</nciodm:CDISCSynonym>
          <nciodm:CDISCDefinition>A non-radiological determination of disease progression based on symptoms or other findings.</nciodm:CDISCDefinition>
          <nciodm:PreferredTerm>Non-Radiological Progression</nciodm:PreferredTerm>
        </EnumeratedItem>
        <EnumeratedItem CodedValue="Non-target Response" nciodm:ExtCodeID="C96609">
          <nciodm:CDISCSynonym>Non-target Response</nciodm:CDISCSynonym>
          <nciodm:CDISCDefinition>An assessment of the response of a non-target tumor(s) to the therapy.</nciodm:CDISCDefinition>
          <nciodm:PreferredTerm>Non-target Response</nciodm:PreferredTerm>
        </EnumeratedItem>
        <EnumeratedItem CodedValue="Overall Response" nciodm:ExtCodeID="C96613">
          <nciodm:CDISCSynonym>Overall Response</nciodm:CDISCSynonym>
          <nciodm:CDISCDefinition>An assessment of the overall response of the disease to the therapy. (NCI)</nciodm:CDISCDefinition>
          <nciodm:PreferredTerm>Overall Response</nciodm:PreferredTerm>
        </EnumeratedItem>
        <EnumeratedItem CodedValue="Target Response" nciodm:ExtCodeID="C96637">
          <nciodm:CDISCSynonym>Target Response</nciodm:CDISCSynonym>
          <nciodm:CDISCDefinition>An assessment of the response of a target tumor(s) to the therapy.</nciodm:CDISCDefinition>
          <nciodm:PreferredTerm>Target Response</nciodm:PreferredTerm>
        </EnumeratedItem>
        <nciodm:CDISCSubmissionValue>RSTEST</nciodm:CDISCSubmissionValue>
        <nciodm:CDISCSynonym>Tumor Response Assessment Test Name</nciodm:CDISCSynonym>
        <nciodm:PreferredTerm>CDISC SDTM Tumor Response Assessment Test Name Terminology</nciodm:PreferredTerm>
      </CodeList>
      