<CodeList xmlns="http://www.cdisc.org/ns/odm/v1.3" xmlns:nciodm="http://ncicb.nci.nih.gov/xml/odm/EVS/CDISC" xmlns:xs="http://www.w3.org/2001/XMLSchema-instance" OID="CL.C66742.NY" Name="No Yes Response" DataType="text" nciodm:ExtCodeID="C66742" nciodm:CodeListExtensible="No">
        <Description>
          <TranslatedText xml:lang="en">A term that is used to indicate a question with permissible values of yes/no/unknown/not applicable.</TranslatedText>
        </Description>
        <EnumeratedItem CodedValue="N" nciodm:ExtCodeID="C49487">
          <nciodm:CDISCSynonym>No</nciodm:CDISCSynonym>
          <nciodm:CDISCDefinition>The non-affirmative response to a question. (NCI)</nciodm:CDISCDefinition>
          <nciodm:PreferredTerm>No</nciodm:PreferredTerm>
        </EnumeratedItem>
        <EnumeratedItem CodedValue="NA" nciodm:ExtCodeID="C48660">
          <nciodm:CDISCSynonym>NA</nciodm:CDISCSynonym>
          <nciodm:CDISCDefinition>Determination of a value is not relevant in the current context. (NCI)</nciodm:CDISCDefinition>
          <nciodm:PreferredTerm>Not Applicable</nciodm:PreferredTerm>
        </EnumeratedItem>
        <EnumeratedItem CodedValue="U" nciodm:ExtCodeID="C17998">
          <nciodm:CDISCSynonym>U</nciodm:CDISCSynonym>
          <nciodm:CDISCSynonym>Unknown</nciodm:CDISCSynonym>
          <nciodm:CDISCDefinition>Not known, not observed, not recorded, or refused. (NCI)</nciodm:CDISCDefinition>
          <nciodm:PreferredTerm>Unknown</nciodm:PreferredTerm>
        </EnumeratedItem>
        <EnumeratedItem CodedValue="Y" nciodm:ExtCodeID="C49488">
          <nciodm:CDISCSynonym>Yes</nciodm:CDISCSynonym>
          <nciodm:CDISCDefinition>The affirmative response to a question. (NCI)</nciodm:CDISCDefinition>
          <nciodm:PreferredTerm>Yes</nciodm:PreferredTerm>
        </EnumeratedItem>
        <nciodm:CDISCSubmissionValue>NY</nciodm:CDISCSubmissionValue>
        <nciodm:CDISCSynonym>No Yes Response</nciodm:CDISCSynonym>
        <nciodm:PreferredTerm>CDISC SDTM Yes No Unknown or Not Applicable Response Terminology</nciodm:PreferredTerm>
      </CodeList>
      