<CodeList xmlns="http://www.cdisc.org/ns/odm/v1.3" xmlns:nciodm="http://ncicb.nci.nih.gov/xml/odm/EVS/CDISC" xmlns:xs="http://www.w3.org/2001/XMLSchema-instance" OID="CL.C66731.SEX" Name="Sex" DataType="text" nciodm:ExtCodeID="C66731" nciodm:CodeListExtensible="No">
        <Description>
          <TranslatedText xml:lang="en">The assemblage of physical properties or qualities by which male is distinguished from female; the physical difference between male and female; the distinguishing peculiarity of male or female. (NCI)</TranslatedText>
        </Description>
        <EnumeratedItem CodedValue="F" nciodm:ExtCodeID="C16576">
          <nciodm:CDISCSynonym>Female</nciodm:CDISCSynonym>
          <nciodm:CDISCDefinition>A person who belongs to the sex that normally produces ova. The term is used to indicate biological sex distinctions, or cultural gender role distinctions, or both. (NCI)</nciodm:CDISCDefinition>
          <nciodm:PreferredTerm>Female</nciodm:PreferredTerm>
        </EnumeratedItem>
        <EnumeratedItem CodedValue="M" nciodm:ExtCodeID="C20197">
          <nciodm:CDISCSynonym>Male</nciodm:CDISCSynonym>
          <nciodm:CDISCDefinition>A person who belongs to the sex that normally produces sperm. The term is used to indicate biological sex distinctions, cultural gender role distinctions, or both. (NCI)</nciodm:CDISCDefinition>
          <nciodm:PreferredTerm>Male</nciodm:PreferredTerm>
        </EnumeratedItem>
        <EnumeratedItem CodedValue="U" nciodm:ExtCodeID="C17998">
          <nciodm:CDISCSynonym>U</nciodm:CDISCSynonym>
          <nciodm:CDISCSynonym>Unknown</nciodm:CDISCSynonym>
          <nciodm:CDISCDefinition>Not known, not observed, not recorded, or refused. (NCI)</nciodm:CDISCDefinition>
          <nciodm:PreferredTerm>Unknown</nciodm:PreferredTerm>
        </EnumeratedItem>
        <EnumeratedItem CodedValue="UN" nciodm:ExtCodeID="C45908">
          <nciodm:CDISCSynonym>Undifferentiated</nciodm:CDISCSynonym>
          <nciodm:CDISCDefinition>A person (one of unisexual specimens) who is born with genitalia and/or secondary sexual characteristics of indeterminate sex, or which combine features of both sexes. (NCI)</nciodm:CDISCDefinition>
          <nciodm:PreferredTerm>Intersex</nciodm:PreferredTerm>
        </EnumeratedItem>
        <nciodm:CDISCSubmissionValue>SEX</nciodm:CDISCSubmissionValue>
        <nciodm:CDISCSynonym>Sex</nciodm:CDISCSynonym>
        <nciodm:PreferredTerm>CDISC SDTM Sex of Individual Terminology</nciodm:PreferredTerm>
      </CodeList>
      