Code	Codelist Code	Codelist Extensible (Yes/No)	Codelist Name	CDISC Submission Value	CDISC Synonym(s)	CDISC Definition	NCI Preferred Term
C90013		Yes	ECG Lead	EGLEAD	ECG Lead	Terminology related to electrocardiogram lead names.	CDISC SDTM Electrocardiogram Lead Terminology
C90403	C90013		ECG Lead	LEAD aV6		An augmented unipolar lead placed at the sixth intercostal space on the midaxillary line. (NCI)	Lead Site aV6
C90360	C90013		ECG Lead	LEAD aVF		An augmented unipolar electrocardiogram limb lead in which the positive (red) electrode is situated on the left pelvic limb and the negative electrode is a combination of the right thoracic limb (white) electrode and the left thoracic limb (black) electrode. Measures the electrical activity of the electrode on the left pelvic limb.	Augmented Vector Foot
C135387	C90013		ECG Lead	LEAD aVF-VENTRAL		An augmented unipolar electrocardiogram limb lead in which the positive electrode is situated at the hindquarters proximal to the sacrum and the negative electrode is a combination of the electrode behind the right ear near the right mastoid process and the electrode near the apex of the heart (located in the ICS of left 5-6 rib close to the sternum).	Lead Site aVF-Ventral
C90361	C90013		ECG Lead	LEAD aVL		An augmented unipolar electrocardiogram limb lead in which the positive (black) electrode is situated on the left thoracic limb and the negative electrode is a combination of the right thoracic limb (white) electrode and the left pelvic limb (red) electrode. Measures the electrical activity of the electrode on the left thoracic limb. (NCI)	Augmented Vector Left
C135388	C90013		ECG Lead	LEAD aVL-AXIAL		An augmented unipolar electrocardiogram limb lead in which the positive electrode is near the apex of the heart (located in the ICS of left 5-6 rib close to the sternum) and the negative electrode is a combination of the electrode behind the right ear near the right mastoid process and the electrode on hindquarters proximal to the sacrum.	Lead Site aVL-Axial
C90362	C90013		ECG Lead	LEAD aVR		An augmented unipolar electrocardiogram limb lead in which the positive (white) electrode is situated on the right thoracic limb and the negative electrode is a combination of the left thoracic limb (black) electrode and the left pelvic limb (red) electrode. Measures the electrical activity of the electrode on the right thoracic limb. (NCI)	Augmented Vector Right
C135389	C90013		ECG Lead	LEAD aVR-DORSAL		An augmented unipolar electrocardiogram limb lead in which the positive electrode is behind the right ear near the right mastoid process and the negative electrode is a combination of the electrode at the hindquarters proximal to the sacrum and the electrode near the apex of the heart (located in the ICS of left 5-6 rib close to the sternum).	Lead Site aVR-Dorsal
C135390	C90013		ECG Lead	LEAD AXIAL		A bipolar electrocardiogram limb lead which records the voltage between the positive electrode near the apex of the heart (located in the ICS of left 5-6 rib close to the sternum) and the negative electrode behind the right ear near the right mastoid process.	Lead Site Axial
C90404	C90013		ECG Lead	LEAD CM5		A bipolar EKG lead with the right thoracic limb electrode placed on the manubrium and left thoracic limb electrode placed at the surface marking of the V5 position (just above the 5th interspace in the anterior axillary line). The left pelvic limb lead acts as a neutral and may be placed anywhere. The C refers to 'clavicle' where it is often placed. (NCI)	Lead Site CM5
C90405	C90013		ECG Lead	LEAD CV5RL		A unipolar chest lead used mostly in large animals. Placed on the sixth ICS on the right side of the thorax along a line parallel to the level of the point of the humeralradial joint.	Lead Site CV5RL
C90406	C90013		ECG Lead	LEAD CV6LL		V1 electrode (+) placed in the 6th intercostal space on the left side of the thorax along a line parallel to the level of the point of the humeralradial joint.	Lead Site CV6LL
C90407	C90013		ECG Lead	LEAD CV6LU		V2 electrode (+) placed in the 6th intercostal space on the left side of the thorax along a line parallel to the level of the point of the shoulder. (NCI)	Lead Site CV6LU
C135391	C90013		ECG Lead	LEAD DORSAL		A bipolar electrocardiogram limb lead which records the voltage between the negative electrode behind the right ear near the right mastoid process and the positive electrode on the hindquarters proximal to the sacrum.	Lead Site Dorsal
C90408	C90013		ECG Lead	LEAD I		A bipolar electrocardiogram limb lead which records the voltage between the negative electrode on the right thoracic limb and the positive electrode on the left thoracic limb. (NCI)	Lead Site I
C90409	C90013		ECG Lead	LEAD II		A bipolar electrocardiogram limb lead which records the voltage between the negative electrode on the right thoracic limb and the positive electrode on the left pelvic limb. (NCI)	Lead Site II
C90410	C90013		ECG Lead	LEAD III		A bipolar electrocardiogram limb lead which records the voltage between the negative electrode on the left thoracic limb and the positive electrode on the left pelvic limb. (NCI)	Lead Site III
C90411	C90013		ECG Lead	LEAD rV2		A unipolar precordial lead placed at the second intercostal space to the left of the sternum. (NCI)	Lead Site rV2
C90412	C90013		ECG Lead	LEAD V1	Lead C1	A unipolar electrocardiogram lead site; the electrode is placed at the fourth intercostal space on the anterior chest wall (between ribs 4 and 5) to the right of the sternal border. In small animals, it is placed at the right fifth intercostal space near the sternum. (NCI)	Lead Site V1
C90413	C90013		ECG Lead	LEAD V10		A unipolar chest lead at which the electrode is placed over the dorsal spinous process of 7th thoracic vertebra. (NCI)	Lead Site V10
C90414	C90013		ECG Lead	LEAD V2	Lead C2	A unipolar electrocardiogram lead site; the electrode is placed on the anterior chest wall at the fourth intercostal space (between ribs 4 and 5) to the left of the sternal border. In small animals it corresponds to V2-V3 where it is placed at the 6th left intercostal space near the sternum. In large animals it is placed over the 6th rib at the level of the costochondral junction on the left side of the thorax.	Lead Site V2
C90415	C90013		ECG Lead	LEAD V3	Lead C3	A unipolar electrocardiogram lead site; the electrode is placed on the anterior chest wall midway between leads V2 and V4. In large and small animals, it is placed over the dorsal spinous process of the 7th thoracic vertebra. (NCI)	Lead Site V3
C90416	C90013		ECG Lead	LEAD V4	Lead C4	A unipolar electrocardiogram lead site; the electrode is placed at the fifth intercostal space on the anterior chest wall (between ribs 5 and 6) at the left midclavicular line. In small animals it corresponds to V4-V6 where it is placed at the 6th left intercostal space near the costochondral junction. In large animals it is placed over the 6th rib at the level of a horizontal line drawn through the scapulohumeral articulation on the left side of the thorax. (NCI)	Lead Site V4
C90417	C90013		ECG Lead	LEAD V5	Lead C5	A unipolar electrocardiogram lead site; the electrode is placed on the anterior chest wall level with lead V4 at the left anterior axillary line. In large animals it is placed on the sixth ICS on the right side of the thorax along a line parallel to the level of the point of the shoulder corresponding to the electrical center of the heart (central terminal). (NCI)	Lead Site V5
C90418	C90013		ECG Lead	LEAD V6	Lead C6	A unipolar electrocardiogram lead site at which the electrode is placed on the anterior chest wall level with lead V5 at the left midaxillary line .	Lead Site V6
C135392	C90013		ECG Lead	LEAD VENTRAL		A bipolar electrocardiogram limb lead which records the voltage with the positive electrode on the hindquarters proximal to the sacrum and the negative electrode near the apex of the heart (located in the ICS of left 5-6 rib close to the sternum).	Lead Site Ventral
C117760	C90013		ECG Lead	SML	Global Median Beat; Superimposition of Multiple Leads	Measurement methodology using multiple leads for the determination of an ECG parameter. This is often visually represented as a superimposition of the median beats from multiple leads.	Superimposition of Multiple Leads
C71150		Yes	ECG Result	EGSTRESC	ECG Result	Terminology codelist used with ECG Findings and Abnormalities within CDISC.	CDISC SDTM ECG Finding Terminology
C111088	C71150		ECG Result	1ST DEGREE AV BLOCK	1st degree AV block; PR Prolongation; Prolonged PR interval	An electrocardiographic finding of prolonged PR interval for a specific population. For adults one common threshold is a PR interval greater than 0.20 seconds. Note that other thresholds may be applicable.	AV Block First Degree by ECG Finding
C71044	C71150		ECG Result	2:1 AV BLOCK	2:1 AV block	An electrocardiographic finding of a supraventricular rhythm where the ratio of impulses generated above the atrioventricular node to the number of impulses conducted through to the ventricles is 2:1. This is manifest on the ECG as 2 P waves per QRS complex.	2:1 Atrioventricular Block by ECG Finding
C62016	C71150		ECG Result	2ND DEGREE AV BLOCK	Second Degree AV Block	An electrocardiographic finding of intermittent failure of atrial electrical impulse conduction to the ventricles. This is manifest on the ECG by regular P waves which intermittently are not followed by QRS complexes.	AV Block Second Degree by ECG Finding
C111091	C71150		ECG Result	3RD DEGREE AV BLOCK	3rd Degree Heart Block; AV block, complete (third-degree); Complete Heart Block	An electrocardiographic finding of complete failure of atrial electrical impulse conduction to the ventricles. This is manifest on the ECG by disassociation of atrial and ventricular rhythms. The atrial rate must be faster than the ventricular rate.	AV Block Third Degree by ECG Finding
C114165	C71150		ECG Result	50 Hz NOISE	50 Hz Artifact; 50 Hz Noise	An electrocardiographic recording showing power line interference with the electrocardiographic signal. The artifact amplitude modulation has the same frequency as the AC power system present (50 Hz).	50 Hertz Noise by ECG Finding
C114164	C71150		ECG Result	60 Hz NOISE	60 Hz Artifact; 60 Hz Noise	An electrocardiographic recording showing power line interference with the electrocardiographic signal. The artifact amplitude modulation has the same frequency as the AC power system present (60 Hz).	60 Hertz Noise by ECG Finding
C116132	C71150		ECG Result	ABERRANTLY CONDUCTED COMPLEXES	Aberrantly Conducted Beats	An electrocardiographic finding of an abnormally wide QRS complex(es) of supraventricular origin with prolonged QRS duration due to aberrant AV conduction.	Aberrantly Conducted Complexes by ECG Finding
C114149	C71150		ECG Result	AC NOISE	AC Noise	An electrocardiographic recording showing power line interference with the electrocardiographic signal. The artifact amplitude modulation has the same frequency as the AC power system present (usually 50 Hz or 60 Hz).	Alternating Current Noise by ECG Finding
C62266	C71150		ECG Result	ACCELERATED IDIOVENTRICULAR RHYTHM	Accelerated idioventricular rhythm	An electrocardiographic finding of idioventricular rhythm with a rate greater than 50 beats per minute.	Accelerated Idioventricular Rhythm by ECG Finding
C71065	C71150		ECG Result	ACUTE ANTERIOR WALL MYOCARDIAL INFARCTION	Acute Anterior MI; Acute Anterior Wall Myocardial Infarction	An electrocardiographic finding of pathologic Q waves with accompanying ST elevation in leads V3 and V4, which is suggestive of acute myocardial infarction of the anterior wall of the left ventricle.	Acute Anterior Myocardial Infarction by ECG Finding
C102591	C71150		ECG Result	ACUTE ANTEROLATERAL WALL MYOCARDIAL INFARCTION	Acute Anterolateral Wall Myocardial Infarction	An electrocardiographic finding of pathologic Q waves with accompanying ST elevation in leads V3 through V6, which is suggestive of acute myocardial infarction of the anterolateral wall of the left ventricle.	Acute Anterolateral Myocardial Infarction by ECG Finding
C102592	C71150		ECG Result	ACUTE ANTEROSEPTAL WALL MYOCARDIAL INFARCTION	Acute Anteroseptal Wall Myocardial Infarction; Acute anteroseptal MI	An electrocardiographic finding of pathologic Q waves with accompanying ST elevation in leads V1 through V4, which is suggestive of acute myocardial infarction of the anteroseptal wall of the left ventricle.	Acute Anteroseptal Myocardial Infarction by ECG Finding
C106496	C71150		ECG Result	ACUTE EXTENSIVE ANTERIOR WALL MYOCARDIAL INFARCTION		An electrocardiographic finding of pathologic Q waves with accompanying ST elevation in leads V1 to V6, I and aVL, which is suggestive of acute myocardial infarction involving the anterior and anterolateral walls of the left ventricle.	Acute Extensive Anterior Wall Myocardial Infarction by ECG Finding
C102593	C71150		ECG Result	ACUTE HIGH LATERAL WALL MYOCARDIAL INFARCTION	Acute High Lateral Wall Myocardial Infarction	An electrocardiographic finding of pathologic Q waves with accompanying ST elevation in leads I and aVL, which is suggestive of acute myocardial infarction of the high lateral wall of the left ventricle.	Acute High Lateral Myocardial Infarction by ECG Finding
C71066	C71150		ECG Result	ACUTE INFERIOR WALL MYOCARDIAL INFARCTION	Acute Inferior MI; Acute Inferior Wall Myocardial Infarction	An electrocardiographic finding of pathologic Q waves with accompanying ST elevation in leads III, aVF and often II, which is suggestive of acute myocardial infarction of the inferior wall of the left ventricle.	Acute Inferior Myocardial Infarction by ECG Finding
C71067	C71150		ECG Result	ACUTE LATERAL WALL MYOCARDIAL INFARCTION	Acute Lateral MI; Acute Lateral Wall Myocardial Infarction	An electrocardiographic finding of pathologic Q waves with accompanying ST elevation in leads V5, V6, I and aVL, which is suggestive of acute myocardial infarction of the lateral wall of the left ventricle.	Acute Lateral Myocardial Infarction by ECG Finding
C101596	C71150		ECG Result	ACUTE MYOCARDIAL INFARCTION	Acute Myocardial Infarction	An electrocardiographic finding showing a current of injury with ST elevation. No specification is provided for localization.	Acute Myocardial Infarction by ECG Finding
C71068	C71150		ECG Result	ACUTE POSTERIOR WALL MYOCARDIAL INFARCTION	Acute Posterior MI; Acute Posterior Wall Myocardial Infarction	An electrocardiographic finding in leads V1 or V2 of an initial R wave duration greater than or equal to 40 ms, R wave greater than S wave, upright T wave, with accompanying ST elevation, which is suggestive of acute myocardial infarction of the posterior wall of the left ventricle. Evidence of inferior or lateral myocardial infarction is usually also present.	Acute Posterior Myocardial Infarction by ECG Finding
C102594	C71150		ECG Result	ACUTE RIGHT VENTRICULAR WALL MYOCARDIAL INFARCTION	Acute Right Ventricular Wall Myocardial Infarction; Acute Right ventricular MI	An electrocardiographic finding in leads V1 or V2 of an initial R wave duration greater than or equal to 40 ms, R wave greater than S wave, upright T wave, with accompanying ST elevation, which is suggestive of acute myocardial infarction of the ventricular wall of the left ventricle. Evidence of inferior or lateral myocardial infarction is usually also present. Additional criteria include ST elevation > 100 microvolts in the right precordial leads V4R through V6R.	Acute Right Ventricular Myocardial Infarction by ECG Finding
C102595	C71150		ECG Result	ACUTE SEPTAL WALL MYOCARDIAL INFARCTION	Acute Septal Wall Myocardial Infarction	An electrocardiographic finding of pathologic Q waves with accompanying ST elevation in leads V1, V2 and often V3, which is suggestive of acute myocardial infarction of the intraventricular septum.	Acute Septal Myocardial Infarction by ECG Finding
C102642	C71150		ECG Result	ADVANCED/HIGH GRADE AV BLOCK	Advanced/High Grade AV Block	An electrocardiographic finding of intermittent failure of atrial electrical impulse conduction to the ventricles, characterized by two or more consecutive non-conducted P waves.	High Grade Atrioventricular Block by ECG Finding
C114159	C71150		ECG Result	ALL PRECORDIAL ELECTRODES DISCONNECTED		An electrocardiographic recording in which all precordial electrodes are disconnected resulting in missing waveforms (flat line) of all leads V1 - V6.	All Precordial Electrodes Are Disconnected by ECG Finding
C71069	C71150		ECG Result	ANTERIOR WALL MYOCARDIAL INFARCTION	Anterior MI; Anterior Wall Myocardial Infarction	An electrocardiographic finding of pathologic Q waves in leads V3 and V4, which is suggestive of myocardial infarction of the anterior wall of the left ventricle.	Anterior Myocardial Infarction by ECG Finding
C35303	C71150		ECG Result	ANTEROLATERAL WALL MYOCARDIAL INFARCTION	Anterolateral Wall Myocardial Infarction	An electrocardiographic finding of pathologic Q waves in leads V3 through V6, which is suggestive of myocardial infarction of the anterolateral wall of the left ventricle.	Anterolateral Myocardial Infarction by ECG Finding
C35304	C71150		ECG Result	ANTEROSEPTAL WALL MYOCARDIAL INFARCTION	Anteroseptal MI; Anteroseptal Wall Myocardial Infarction	An electrocardiographic finding of pathologic Q waves in leads V1 through V4, which is suggestive of myocardial infarction of the anteroseptal wall of the left ventricle.	Anteroseptal Myocardial Infarction by ECG Finding
C114162	C71150		ECG Result	ARTIFACT		An electrocardiographic recording in which one or more leads display extraneous signals which do not represent cardiac electrical activity.	Artifact Lead Signal by ECG Finding
C116130	C71150		ECG Result	ASYSTOLE		An electrocardiographic finding showing no cardiac electrical activity on the ECG for the entire duration of the recording.	Asystole by ECG Finding
C102596	C71150		ECG Result	ATRIAL BIGEMINY		An electrocardiographic finding of a sinus beat followed by a premature atrial complex for three or more consecutive cycles; a regularly irregular rhythm of normal and abnormal P waves in a 1-1 ratio.	Atrial Bigeminy by ECG Finding
C102597	C71150		ECG Result	ATRIAL COUPLETS	Atrial Couplets	An electrocardiographic finding in which two premature atrial complexes occur sequentially.	Atrial Couplet by ECG Finding
C71039	C71150		ECG Result	ATRIAL ENLARGEMENT	Atrial Enlargement	An electrocardiographic finding which comprises left, right or bilateral atrial enlargement. This is may be characterized by prolonged P wave duration, increased P wave amplitude, or multi-component P waves.	Atrial Enlargement by ECG Finding
C111092	C71150		ECG Result	ATRIAL FIBRILLATION	Atrial fibrillation	An electrocardiographic finding of a supraventricular arrhythmia characterized by the replacement of consistent P waves by rapid oscillations or fibrillatory waves that vary in size, shape and timing and are accompanied by an irregularly irregular ventricular response.	Atrial Fibrillation by ECG Finding
C111094	C71150		ECG Result	ATRIAL FLUTTER	Atrial flutter	An electrocardiographic finding of an organized, regular atrial rhythm with atrial rate of 240-340 beats per minute. Multiple P waves typically appear in the inferior leads in a saw tooth like pattern between the QRS complexes.	Atrial Flutter by ECG Finding
C111105	C71150		ECG Result	ATRIAL TACHYCARDIA	Atrial tachycardia	An electrocardiographic finding of an organized, regular atrial rhythm with atrial rate between 101 and 240 beats per minute. The P wave morphology must be distinct from the sinus P wave morphology.	Atrial Tachycardia by ECG Finding
C119249	C71150		ECG Result	ATRIAL TACHYCARDIA WITH AV BLOCK		An electrocardiographic finding of an atrial tachycardia which does not display 1:1 AV conduction.	Atrial Tachycardia With AV Block by ECG Finding
C102598	C71150		ECG Result	ATRIAL TRIGEMINY	Atrial Trigeminy	An electrocardiographic finding of two sinus beats followed by a premature atrial complex for 3 or more consecutive cycles; a regularly irregular rhythm of normal and abnormal P waves in a 2-1 ratio.	Atrial Trigeminy by ECG Finding
C71045	C71150		ECG Result	ATRIOVENTRICULAR DISSOCIATION	AV Dissociation; Atrioventricular dissociation	An electrocardiographic finding in which the electrical activity of the atria and ventricles are independent of one another.	Atrioventricular Dissociation by ECG Finding
C111089	C71150		ECG Result	AV MOBITZ I	AV Mobitz I; Mobitz I Second Degree AV Block; Second degree AV block- Mobitz type I; Second-degree AV block, Mobitz type I (Wenckebach); Type 1 2nd degree AV Block; Wenckebach	An electrocardiographic finding of intermittent failure of atrial electrical impulse conduction to the ventricles, characterized by a progressively lengthening PR interval prior to the block of an atrial impulse.	AV Block Second Degree Mobitz Type I by ECG Finding
C111090	C71150		ECG Result	AV MOBITZ II	Mobitz II AV Block; Mobitz II Second Degree AV Block; Type 2 2nd degree AV Block	An electrocardiographic finding of intermittent failure of atrial electrical impulse conduction to the ventricles, characterized by a relatively constant PR interval prior to the block of an atrial impulse.	AV Block Second Degree Mobitz Type II by ECG Finding
C35058	C71150		ECG Result	AV NODE RE-ENTRY	AV Node Reentrant Supraventricular Tachycardia	An electrocardiographic finding of a regular supraventricular tachycardia due to reentry within the AV node. It is characterized by P waves which typically occurs nearly simultaneously with the QRS complex, resulting in a P wave which is obscured by the QRS, merged with the QRS or which may follow the QRS.	Atrioventricular Nodal Reentry Tachycardia by ECG Finding
C62261	C71150		ECG Result	AV RE-ENTRANT TACHYCARDIA	AV Reentrant Supraventricular Tachycardia	An electrocardiographic finding of a regular supraventricular tachycardia which utilizes an atrioventricular bypass tract as its retrograde limb (orthodromic tachycardia) or as its antegrade limb (antidromic tachycardia). QRS complexes during sinus rhythm may show preexcitation. During orthodromic tachycardia the preexcitation is not present and a retrograde P wave may appear after the QRS complex. During antidromic tachycardia the QRS complex is preexcited.	Atrioventricular Reentrant Tachycardia by ECG Finding
C114147	C71150		ECG Result	BASELINE WANDER		An electrocardiographic recording in which the isoelectric line in one or more leads is vertically displaced resulting in low frequency upward and downward movements of the signal with varying amplitudes.	Baseline Wander by ECG Finding
C71046	C71150		ECG Result	BIFASCICULAR BLOCK	Bifascicular block	An electrocardiographic finding comprising right bundle branch block and left anterior fascicular block, or right bundle branch block and left posterior fascicular block. Defects occurring in two of the three divisions of the conduction system of the heart are considered bifascicular blocks. Technically left bundle branch block may be considered a bifascicular block. (NCI)	Bifascicular Block by ECG Finding
C106502	C71150		ECG Result	BIVENTRICULAR HYPERTROPHY		An electrocardiographic finding suggestive of enlargement or thickening of both ventricles, with a combination of findings which are related to LVH and RVH, such as voltage criteria for LVH in the presence of marked right axis deviation.	Biventricular Hypertrophy by ECG Finding
C92228	C71150		ECG Result	BORDERLINE QTCB	Borderline QTcB	An electrocardiographic finding in which the QT interval corrected for heart rate using Bazett's formula is slightly prolonged. Thresholds for different age, gender, and patient populations exist.	Borderline QTcB
C92229	C71150		ECG Result	BORDERLINE QTCF	Borderline QTcF	An electrocardiographic finding in which the QT interval corrected for heart rate using Fridericia's formula is slightly prolonged. Thresholds for different age, gender, and patient populations exist.	Borderline QTcF
C111120	C71150		ECG Result	BRADYCARDIA	Bradycardia	An electrocardiographic finding of abnormally slow heart rate. Thresholds for different age, gender, and patient populations exist.	Bradycardia by ECG Finding
C106503	C71150		ECG Result	BRUGADA SYNDROME PATTERN		An electrocardiographic finding of complete or incomplete right bundle branch block accompanied by ST elevation in leads V1-V3. This may be noted at rest or can be provoked by medication challenge.	Brugada Syndrome Pattern by ECG Finding
C116138	C71150		ECG Result	CV ENDPOINTS ISCHEMIC ECG CHANGES		An electrocardiographic finding, in the absence of left ventricular hypertrophy (LVH) and left bundle branch block pattern on ECG, of either a) new (or presumed new) ST elevation at the J point in two contiguous leads with the following cut-points: greater than or equal to 0.1 mV in all leads other than leads V2-V3 where the following cut points apply: greater than or equal to 0.2 mV in men greater than or equal to 40 years; greater than or equal to 0.25 mV in men less than 40 years, or greater than or equal to 0.15 mV in women; or b) new (or presumed new) horizontal or down-sloping ST depression greater than or equal to 0.05 mV in two contiguous leads and/or T inversion greater than or equal to 0.1 mV in two contiguous leads with prominent R wave or R/S ratio greater than 1. (Thygesen K, Alpert JS, Jaffe AS, Simoons ML, et al.; Joint ESC/ACCF/AHA/WHF Task Force for Universal Definition of Myocardial Infarction. Third universal definition of myocardial infarction. J Am Coll Cardiol. 2012 Oct 16;60(16):1581-98).	ACC/AHA Ischemic ECG Changes
C62258	C71150		ECG Result	DELTA WAVE	Delta wave	An electrocardiographic finding of initial slurring (delta wave) of the QRS complex due to the presence of an accessory pathway. This characteristic ECG pattern is typically seen in Wolff-Parkinson-White syndrome.	Delta Wave by ECG Finding
C102623	C71150		ECG Result	DEXTROCARDIA	Dextrocardia	An electrocardiographic finding suggestive of dextrocardia with situs inversus, characterized by reversal of normal anterior R wave progression and the appearance of reversal of the right and left arm electrodes.	Dextrocardia by ECG Finding
C102628	C71150		ECG Result	EARLY R WAVE TRANSITION	Early R Wave Progression; Early R Wave Transition	An electrocardiographic finding where the amplitude of the R wave becomes greater than the amplitude of the S wave in the QRS complex at an unusually early point in the precordial leads, usually in leads V1 or V2.	Early R Wave Transition by ECG Finding
C102629	C71150		ECG Result	EARLY REPOLARIZATION	Early Repolarization	An electrocardiographic finding of J point and ST segment elevation in the absence of other signs of acute ischemia or pericarditis.	Early Repolarization
C114175	C71150		ECG Result	ECG ACQUIRED WITH PRECORDIAL ELECTRODES PLACED ON RIGHT CHEST		An electrocardiographic recording in which the precordial electrodes have been placed over the right chest and record a right sided ECG.	ECG Acquired with Precordial Electrodes Placed on the Right Chest
C114181	C71150		ECG Result	ECG EVALUATION NOT PERFORMED DUE TO CORRUPTED DIGITAL ECG FILE		A digital electrocardiographic recording which is corrupted (i.e. ECG signal cannot be restored) such that measurements and/or interpretation cannot be performed.	ECG Evaluation Not Performed Due to Corrupted Digital ECG File
C114180	C71150		ECG Result	ECG EVALUATION NOT PERFORMED DUE TO POOR QUALITY OF PRINTED ECG		A printed electrocardiographic recording with poor printout quality (e.g. a faded paper ECG tracing or ECG with inconsistent printing speed) such that measurements and/or interpretation cannot be performed.	ECG Evaluation Not Performed Due to Poor Quality of Printed ECG
C114178	C71150		ECG Result	ECG EVALUATION NOT PERFORMED DUE TO UNKNOWN ECG AMPLITUDE GAIN OR RECORDING SPEED		An electrocardiographic recording in which measurements and/or interpretation are not performed because the ECG amplitude gain and/or recording speed are not known.	ECG Evaluation Not Performed Due to Unknown ECG Amplitude Gain or Recording Speed
C62245	C71150		ECG Result	ECTOPIC ATRIAL RHYTHM	Ectopic atrial rhythm	An electrocardiographic finding of a regular atrial rhythm with atrial rate of less than 101 beats per minute which does not originate in the sinus node, and which is characterized by P waves whose morphology differs from the P wave morphology during sinus rhythm.	Ectopic Atrial Rhythm by ECG Finding
C71042	C71150		ECG Result	ECTOPIC VENTRICULAR RHYTHM	Ectopic ventricular rhythm	An electrocardiographic finding of three or more consecutive complexes of ventricular origin. The QRS complexes are wide and have an abnormal morphology.	Ectopic Ventricular Rhythm by ECG Finding
C71035	C71150		ECG Result	ELECTRICAL ALTERNANS	Electrical alternans	An electrocardiographic finding in which there is an alternating pattern of any of the waveform components. (NCI)	Electrical Alternans by ECG Finding
C106520	C71150		ECG Result	EXTENSIVE ANTERIOR WALL MYOCARDIAL INFARCTION		An electrocardiographic finding of pathologic Q waves in leads V1 to V6, I and aVL, which is suggestive of myocardial infarction involving the anterior and anterolateral walls of the left ventricle.	Extensive Anterior Wall Myocardial Infarction by ECG Finding
C102639	C71150		ECG Result	FUSION COMPLEX	Fusion Complex; Fusion complex(es)	An electrocardiographic finding that occurs when electrical activation of the atria or ventricles occurs from two separate sites. This results in a P wave or QRS complex that displays merged characteristics of beats originating from the two different sites.	Fusion Complex
C102643	C71150		ECG Result	HIGH LATERAL WALL MYOCARDIAL INFARCTION	High Lateral Wall Myocardial Infarction	An electrocardiographic finding of pathologic Q waves in leads I and aVL, which is suggestive of myocardial infarction of the high lateral wall of the left ventricle.	High Lateral Myocardial Infarction by ECG Finding
C50599	C71150		ECG Result	IDIOVENTRICULAR RHYTHM	Idioventricular Rhythm	An electrocardiographic finding of three or more consecutive complexes of ventricular origin with a rate less than a certain threshold (100 or 120 beats per minute are commonly used). The QRS complexes are wide and have an abnormal morphology.	Idioventricular Rhythm
C114167	C71150		ECG Result	INCOMPLETE ECG		An electrocardiographic recording which is limited in duration or which does not display all of the expected leads.	Incomplete ECG
C71047	C71150		ECG Result	INCOMPLETE LEFT BUNDLE BRANCH BLOCK	Incomplete left bundle branch block	An electrocardiographic finding of a wide QRS complex with evidence of delayed conduction to the left ventricle, manifest as a widened initial portion of the QRS complex in leads V5, V6, I and aVL and with QRS duration less than 120 ms.	Incomplete Left Bundle Branch Block by ECG Finding
C114179	C71150		ECG Result	INCOMPLETE MEASUREMENTS DUE TO TRUNCATION OF QRS COMPLEXES		An electrocardiographic recording in which measurements (particularly of QRS amplitudes) and/or interpretations are not performed because QRS complexes have been truncated.	Incomplete ECG Measurements Due to Truncation of QRS Complexes
C71048	C71150		ECG Result	INCOMPLETE RIGHT BUNDLE BRANCH BLOCK	Incomplete right bundle branch block; Incomplete right bundle-branch block	An electrocardiographic finding of a wide QRS complex with evidence of delayed conduction to the right ventricle, manifest by a widened initial portion of the QRS in V1 and V2, a widened S wave in V5, V6, I and aVL, and with QRS duration less than 120 ms.	Incomplete Right Bundle Branch Block by ECG Finding
C114169	C71150		ECG Result	INCOMPLETELY DIGITIZED ECG LEAD(S)		A digital electrocardiographic recording which was digitized from paper ECG tracings and which does not contain all leads present on the original paper printout.	Incompletely Digitized ECG Leads
C114168	C71150		ECG Result	INCORRECTLY SCALED ECG		An electrocardiographic recording in which the ECG signal is not displayed at the indicated recording speed and/or amplitude resolution.	Incorrectly Scaled ECG
C102701	C71150		ECG Result	INDETERMINATE QRS AXIS	Indeterminate Axis; Indeterminate QRS Axis; QRS Axis Indeterminate	An electrocardiographic finding in which the frontal plane QRS axis cannot be calculated.	QRS Axis Indeterminate
C35398	C71150		ECG Result	INFERIOR WALL MYOCARDIAL INFARCTION	Inferior MI; Inferior Wall Myocardial Infarction	An electrocardiographic finding of pathologic Q waves in leads III, aVF and often II, which is suggestive of myocardial infarction of the inferior wall of the left ventricle.	Inferior Myocardial Infarction by ECG Finding
C114177	C71150		ECG Result	INSUFFICENT NUMBER OF BEATS TO COMPLETELY EVALUATE ECG		An electrocardiographic recording in which fewer than the required number of cardiac complexes are available for measurement and/or interpretation due to a shorter than planned recording or due to cardiac complexes which are present but are not suitable for measurement and/or interpretation.	Insufficient Number of Beats for Complete ECG Evaluation
C71073	C71150		ECG Result	INTRAATRIAL CONDUCTION DELAY	Intraatrial Conduction Delay	An electrocardiographic finding of a delay in impulse propagation through the atria. This is characterized by broad P waves which are often biphasic in V1.	Intra-Atrial Conduction Delay by ECG Finding
C62271	C71150		ECG Result	INTRAVENTRICULAR CONDUCTION DELAY, NONSPECIFIC	Intraventricular Conduction Defect; Intraventricular conduction delay	An electrocardiographic finding of a widened QRS duration typically greater than 110 ms which does not meet the morphologic criteria for any of the standard bundle branch or fascicular block patterns.	Nonspecific Intraventricular Conduction Delay by ECG Finding
C114171	C71150		ECG Result	INVALID ECG WAVEFORMS		An electrocardiographic recording for which the displayed leads do not represent the individual's true ECG lead information.	Invalid ECG Waveforms
C62248	C71150		ECG Result	ISORHYTHMIC DISSOCIATION	Isorhythmic dissociation	An electrocardiographic finding of a type of atrioventricular dissociation characterized by the atria (P waves) and ventricles (QRS complexes) beating at similar rates, although independently.	Isorhythmic Atrioventricular Dissociation
C71030	C71150		ECG Result	J POINT ELEVATION	J point elevation	An electrocardiographic finding of a significant elevation above the baseline of the J point.	J Point Elevation
C71074	C71150		ECG Result	JUNCTIONAL BRADYCARDIA	Junctional bradycardia	An electrocardiographic finding of a junctional rhythm with a heart rate which is abnormally low.	Junctional Bradycardia by ECG Finding
C116129	C71150		ECG Result	JUNCTIONAL ESCAPE COMPLEXES	Junctional Escape Beats	An electrocardiographic finding of an escape beat following a pause which originates in the AV junction. This is manifest as a QRS complex of supraventricular origin not preceded by a P wave.	Junctional Escape Complexes by ECG Finding
C135393	C71150		ECG Result	JUNCTIONAL ESCAPE RHYTHM		An electrocardiographic finding of a junctional rhythm that arises as a physiologic response to extreme slowing or arrest of sinus node activity. In this setting, a faster junctional rhythm may be a normal response to a very slow or absent sinus rate.	Junctional Escape Rhythm by ECG Finding
C102652	C71150		ECG Result	JUNCTIONAL PREMATURE COMPLEX	Junctional Extra Beat; Junctional Premature Complex; Junctional premature complex(es)	An electrocardiographic finding of an ectopic impulse originating in the AV junction presenting as a QRS complex of supraventricular origin which is not preceded by a P wave.	Junctional Premature Complex by ECG Finding
C71051	C71150		ECG Result	JUNCTIONAL RHYTHM	Junctional rhythm	An electrocardiographic finding of a rhythm which originates in the AV junction and results in a normal heart rate. It is characterized by retrograde P waves which may be obscured by or may follow the QRS complexes. The QRS complexes may be narrow or may demonstrate aberration.	Junctional Rhythm by ECG Finding
C35059	C71150		ECG Result	JUNCTIONAL TACHYCARDIA	Junctional tachycardia	An electrocardiographic finding of a junctional rhythm with a heart rate which is abnormally elevated.	Junctional Tachycardia by ECG Finding
C102653	C71150		ECG Result	LATE R WAVE TRANSITION	Late R Wave Transition	An electrocardiographic finding where the amplitude of the R wave does not become greater than the amplitude of the S wave until an unusually late point in the precordial leads, usually in leads V4 to V6.	Late R Wave Transition by ECG Finding
C35586	C71150		ECG Result	LATERAL WALL MYOCARDIAL INFARCTION	Lateral MI; Lateral Wall Myocardial Infarction	An electrocardiographic finding of pathologic Q waves in leads V5, V6, I and aVL, which is suggestive of myocardial infarction of the lateral wall of the left ventricle.	Lateral Myocardial Infarction by ECG Finding
C62267	C71150		ECG Result	LEFT ANTERIOR FASCICULAR BLOCK	Left Anterior Hemiblock; Left anterior fascicular block	An electrocardiographic finding of a slightly widened QRS duration (typically less than 120 ms) with leftward frontal plane QRS axis and typically small Q waves in leads I and aVL.	Left Anterior Fascicular Block by ECG Finding
C71040	C71150		ECG Result	LEFT ATRIAL ABNORMALITY	Left Atrial Enlargement; P-mitrale	An electrocardiographic finding suggesting underlying hypertrophy or dilatation of the left atrium. Electrocardiographic criteria used for the diagnosis of left atrial abnormality may include a bifid p wave, a biphasic p wave and/or a p wave duration of greater than 0.12 seconds. (NCI)	P-mitrale by ECG Finding
C62269	C71150		ECG Result	LEFT BUNDLE BRANCH BLOCK	Complete LBBB; Left bundle branch block; Left bundle-branch block	An electrocardiographic finding of a wide QRS complex with evidence of delayed conduction to the left ventricle, manifest as a widened initial portion of the QRS complex in leads V5, V6, I and aVL and with QRS duration greater than or equal to 120 ms.	Left Bundle Branch Block by ECG Finding
C62268	C71150		ECG Result	LEFT POSTERIOR FASCICULAR BLOCK	Left Posterior Hemiblock; Left posterior fascicular block	An electrocardiographic finding of an S1Q3 pattern and QRS axis greater than or equal to 120 degrees. It is usually seen in association with other abnormalities (e.g. RBBB or RVH).	Left Posterior Fascicular Block by ECG Finding
C92231	C71150		ECG Result	LEFT VENTRICULAR CONDUCTION DELAY	Left Ventricular Conduction Delay	An electrocardiographic finding in which there is evidence that electrical transmission through the left ventricle is impaired.	Left Ventricular Conduction Delay by ECG Finding
C71076	C71150		ECG Result	LEFT VENTRICULAR HYPERTROPHY	Left Ventricular Hypertrophy	An electrocardiographic finding suggestive of a hypertrophied left ventricle, characterized by large QRS amplitudes and secondary findings of left atrial enlargement, left axis deviation, or typical pattern of ST depression and T wave inversion.	Left Ventricular Hypertrophy by ECG Finding
C102655	C71150		ECG Result	LEFT VENTRICULAR HYPERTROPHY WITH STRAIN	Left Ventricular Hypertrophy With Strain	An electrocardiographic finding suggestive of a hypertrophied left ventricle, characterized by large QRS amplitudes, ST depression and T wave inversion.	Left Ventricular Hypertrophy with Strain by ECG Finding
C114151	C71150		ECG Result	LIMB ELECTRODE(S) DISCONNECTED		An electrocardiographic recording in which one or more of the limb electrodes are disconnected resulting in missing waveforms (often flat lines) of the respective leads.	Disconnected Limb Electrodes by ECG Finding
C114150	C71150		ECG Result	LIMB ELECTRODES INTERCHANGED	Limb Lead Reversal	An electrocardiographic recording in which two or more of the limb electrodes are switched resulting in improper representation of the affected leads.	Interchanged Limb Electrodes by ECG Finding
C114166	C71150		ECG Result	LOW AMPLITUDE SIGNAL	Low Amplitude QRS Complex	An electrocardiographic recording showing smaller than usual QRS complexes in one or more leads. This may represent a technical issue with the ECG acquisition or characteristics of the individual.	Low Amplitude QRS Complex by ECG Finding
C71078	C71150		ECG Result	LOW QRS VOLTAGE	Low QRS voltage	An electrocardiographic finding of a QRS amplitude less than or equal to 0.5 mV in the limb leads or QRS amplitude less than or equal to 1 mV in the precordial leads.	Low QRS Voltage by ECG Finding
C116133	C71150		ECG Result	LOW VOLTAGE - LIMB LEADS ONLY		An electrocardiographic finding of small QRS amplitudes (less than 500 microvolts) in all limb leads.	Low Voltage in Limb Leads Only by ECG Finding
C71050	C71150		ECG Result	MULTIFOCAL ATRIAL TACHYCARDIA	Multifocal atrial tachycardia	An electrocardiographic finding of a supraventricular arrhythmia characterized by 3 or more distinct P wave morphologies with an isoelectric baseline, variable PR intervals and no predominant atrial rhythm. The ventricular rate is typically 100-150 beats per minute.	Multifocal Atrial Tachycardia by ECG Finding
C114148	C71150		ECG Result	MUSCLE TREMOR		An electrocardiographic recording with intermittent mid to high frequency artifact in one or more leads due to muscular tremor or movement rather than cardiac activity.	Muscle Tremor Artifact
C101589	C71150		ECG Result	MYOCARDIAL INFARCTION	Myocardial Infarction	An electrocardiographic finding of pathologic Q waves, which is suggestive of myocardial infarction of one or more regions of the heart. No specification is provided for localization.	Myocardial Infarction by ECG Finding
C102732	C71150		ECG Result	NEW ANTERIOR WALL MYOCARDIAL INFARCTION	New Anterior MI; New Anterior Wall Myocardial Infarction	An electrocardiographic finding of pathologic Q waves in leads V3 and V4, which is suggestive of myocardial infarction of the anterior wall of the left ventricle and which is new compared to prior ECGs.	New Anterior Myocardial Infarction by ECG Finding
C102733	C71150		ECG Result	NEW ANTEROLATERAL WALL MYOCARDIAL INFARCTION	New Anterolateral Wall Myocardial Infarction	An electrocardiographic finding of pathologic Q waves in leads V3 through V6, which is suggestive of myocardial infarction of the anterolateral wall of the left ventricle and which is new compared to prior ECGs.	New Anterolateral Myocardial Infarction by ECG Finding
C102734	C71150		ECG Result	NEW ANTEROSEPTAL WALL MYOCARDIAL INFARCTION	New Anteroseptal Wall Myocardial Infarction	An electrocardiographic finding of pathologic Q waves in leads V1 through V4, which is suggestive of myocardial infarction of the anteroseptal wall of the left ventricle and which is new compared to prior ECGs.	New Anteroseptal Myocardial Infarction by ECG Finding
C102735	C71150		ECG Result	NEW EXTENSIVE ANTERIOR WALL MYOCARDIAL INFARCTION	New Extensive Anterior Wall Myocardial Infarction	An electrocardiographic finding of pathologic Q waves in leads V1 to V6, I and aVL, which is suggestive of myocardial infarction involving the anterior and anterolateral walls of the left ventricle and which is new compared to prior ECGs.	New Extensive Anterior Myocardial Infarction by ECG Finding
C102736	C71150		ECG Result	NEW HIGH LATERAL WALL MYOCARDIAL INFARCTION	New High Lateral Wall Myocardial Infarction	An electrocardiographic finding of pathologic Q waves in leads I and aVL, which is suggestive of myocardial infarction of the high lateral wall of the left ventricle and which is new compared to prior ECGs.	New High Lateral Myocardial Infarction by ECG Finding
C102737	C71150		ECG Result	NEW INFERIOR WALL MYOCARDIAL INFARCTION	New Inferior Wall Myocardial Infarction	An electrocardiographic finding of pathologic Q waves in leads III, aVF and often II, which is suggestive of myocardial infarction of the inferior wall of the left ventricle and which is new compared to prior ECGs.	New Inferior Myocardial Infarction by ECG Finding
C102738	C71150		ECG Result	NEW LATERAL WALL MYOCARDIAL INFARCTION	New Lateral Wall Myocardial Infarction	An electrocardiographic finding of pathologic Q waves in leads V5, V6, I and aVL, which is suggestive of myocardial infarction of the lateral wall of the left ventricle and which is new compared to prior ECGs.	New Lateral Myocardial Infarction by ECG Finding
C102731	C71150		ECG Result	NEW MYOCARDIAL INFARCTION	New Myocardial Infarction	An electrocardiographic finding of pathologic Q waves, which is suggestive of myocardial infarction of one or more regions of the heart and which is new compared to prior ECGs. No specification is provided for localization.	New Myocardial Infarction by ECG Finding
C106548	C71150		ECG Result	NEW POSTERIOR WALL MYOCARDIAL INFARCTION		An electrocardiographic finding in leads V1 or V2 of an initial R wave duration greater than or equal to 40 ms, R wave greater than S wave, and upright T wave, which is suggestive of myocardial infarction of the posterior wall of the left ventricle, and which is new compared to prior ECGs. Evidence of inferior or lateral myocardial infarction is usually also present.	New Posterior Wall Myocardial Infarction by ECG Finding
C102739	C71150		ECG Result	NEW SEPTAL WALL MYOCARDIAL INFARCTION	New Septal Wall Myocardial Infarction	An electrocardiographic finding of pathologic Q waves in leads V1, V2 and often V3, which is suggestive of myocardial infarction of the intraventricular septum and which is new compared to prior ECGs.	New Septal Myocardial Infarction by ECG Finding
C114163	C71150		ECG Result	NO ECG WAVEFORMS PRESENT		An electrocardiographic recording that displays flat lines (no waveforms are visible) in all leads present.	ECG Waveforms Not Present
C71080	C71150		ECG Result	NON Q WAVE MYOCARDIAL INFARCTION	Non Q Wave Myocardial Infarction	An electrocardiographic finding of ST and T wave abnormalities in the absence of pathologic Q waves, which is suggestive of myocardial infarction in one or more regions of the heart.	Non Q Wave Myocardial Infarction by ECG Finding
C116134	C71150		ECG Result	NON-DIAGNOSTIC Q WAVES		An electrocardiographic finding of Q waves which are insufficient for the diagnosis of myocardial infarction. In such cases a myocardial infarction may be suspected, even though ECG criteria are not met.	Non-Diagnostic Q Waves by ECG Finding
C71031	C71150		ECG Result	NON-SPECIFIC ST-T CHANGES	Non-specific ST-T changes	An electrocardiographic finding of changes in the ST segment and T wave that do not meet criteria for ischemia or infarction. (NCI)	Non-Specific ST-T Changes by ECG Finding
C102680	C71150		ECG Result	NON-SUSTAINED ATRIAL TACHYCARDIA	Non-Sustained Atrial Tachycardia	An electrocardiographic finding of an atrial tachycardia which terminates in less than 30 seconds.	Non-Sustained Atrial Tachycardia by ECG Finding
C71053	C71150		ECG Result	NON-SUSTAINED VENTRICULAR TACHYCARDIA	Non-sustained ventricular tachycardia; Ventricular tachycardia, unsustained	An electrocardiographic finding of ventricular tachycardia less than 30 seconds in duration. (NCI)	Non-Sustained Ventricular Tachycardia by ECG Finding
C135394	C71150		ECG Result	NONCONDUCTED P WAVE PHYSIOLOGY NOT DEFINED		An electrocardiographic finding of a P wave that does not conduct to the ventricle or result in ventricular activation.	Nonconducted P Wave Physiology Not Defined by ECG Finding
C102681	C71150		ECG Result	NORMAL SINUS RHYTHM	Normal Sinus Rhythm	An electrocardiographic finding of an atrial rhythm which originates from the sinoatrial node that is considered normal for the population. There are no extra beats or conduction abnormalities.	Normal Sinus Rhythm
C102634	C71150		ECG Result	NORTHWEST AXIS	Northwest Axis; Right superior axis	An electrocardiographic finding of a frontal plane QRS axis from -90 to +180 degrees.	Extreme Right Axis Deviation
C71032	C71150		ECG Result	NOTCHED T WAVES	Notched T Waves	An electrocardiographic finding of an irregular, u or v shaped deflection within the contour of the T wave.	T Wave Notched by ECG Finding
C102684	C71150		ECG Result	OLD OR AGE INDETERMINATE ANTERIOR WALL MYOCARDIAL INFARCTION	Old Or Age Indeterminate Anterior Wall Myocardial Infarction	An electrocardiographic finding of pathologic Q waves in leads V3 and V4, which is suggestive of myocardial infarction of the anterior wall of the left ventricle, without evidence of current or ongoing acute infarction.	Old or Age Indeterminate Anterior Myocardial Infarction by ECG Finding
C102685	C71150		ECG Result	OLD OR AGE INDETERMINATE ANTEROLATERAL WALL MYOCARDIAL INFARCTION	Old Or Age Indeterminate Anterolateral Wall Myocardial Infarction	An electrocardiographic finding of pathologic Q waves in leads V3 through V6, which is suggestive of myocardial infarction of the anterolateral wall of the left ventricle, without evidence of current or ongoing acute infarction.	Old or Age Indeterminate Anterolateral Myocardial Infarction by ECG Finding
C102686	C71150		ECG Result	OLD OR AGE INDETERMINATE ANTEROSEPTAL WALL MYOCARDIAL INFARCTION	Old Or Age Indeterminate Anteroseptal Wall Myocardial Infarction	An electrocardiographic finding of pathologic Q waves in leads V1 through V4, which is suggestive of myocardial infarction of the anteroseptal wall of the left ventricle, without evidence of current or ongoing acute infarction.	Old or Age Indeterminate Anteroseptal Myocardial Infarction by ECG Finding
C102687	C71150		ECG Result	OLD OR AGE INDETERMINATE EXTENSIVE ANTERIOR WALL MYOCARDIAL INFARCTION	Old Or Age Indeterminate Extensive Anterior Wall Myocardial Infarction	An electrocardiographic finding of pathologic Q waves in leads V1 to V6, I and aVL, which is suggestive of myocardial infarction involving the anterior and anterolateral walls of the left ventricle, without evidence of current or ongoing acute infarction.	Old or Age Indeterminate Extensive Anterior Myocardial Infarction by ECG Finding
C102688	C71150		ECG Result	OLD OR AGE INDETERMINATE HIGH LATERAL WALL MYOCARDIAL INFARCTION	Old Or Age Indeterminate High Lateral Wall Myocardial Infarction	An electrocardiographic finding of pathologic Q waves in leads I and aVL, which is suggestive of myocardial infarction of the high lateral wall of the left ventricle, without evidence of current or ongoing acute infarction.	Old or Age Indeterminate High Lateral Myocardial Infarction by ECG Finding
C102689	C71150		ECG Result	OLD OR AGE INDETERMINATE INFERIOR WALL MYOCARDIAL INFARCTION	Old Or Age Indeterminate Inferior Wall Myocardial Infarction	An electrocardiographic finding of pathologic Q waves in leads III, aVF and often II, which is suggestive of myocardial infarction of the inferior wall of the left ventricle, without evidence of current or ongoing acute infarction.	Old or Age Indeterminate Inferior Myocardial Infarction by ECG Finding
C102690	C71150		ECG Result	OLD OR AGE INDETERMINATE LATERAL WALL MYOCARDIAL INFARCTION	Old Or Age Indeterminate Lateral Wall Myocardial Infarction	An electrocardiographic finding of pathologic Q waves in leads V5, V6, I and aVL, which is suggestive of myocardial infarction of the lateral wall of the left ventricle, without evidence of current or ongoing acute infarction.	Old or Age Indeterminate Lateral Myocardial Infarction by ECG Finding
C102691	C71150		ECG Result	OLD OR AGE INDETERMINATE POSTERIOR WALL MYOCARDIAL INFARCTION	Old Or Age Indeterminate Posterior Wall Myocardial Infarction	An electrocardiographic finding in leads V1 or V2 of an initial R wave duration greater than or equal to 40 ms, R wave greater than S wave, and upright T wave, which is suggestive of myocardial infarction of the posterior wall of the left ventricle, without evidence of current or ongoing acute infarction. Evidence of inferior or lateral myocardial infarction is usually also present.	Old or Age Indeterminate Posterior Myocardial Infarction by ECG Finding
C102693	C71150		ECG Result	OLD OR AGE INDETERMINATE SEPTAL WALL MYOCARDIAL INFARCTION	Old Or Age Indeterminate Septal Wall Myocardial Infarction	An electrocardiographic finding of pathologic Q waves in leads V1, V2 and often V3, which is suggestive of myocardial infarction of the intraventricular septum, without evidence of current or ongoing acute infarction.	Old or Age Indeterminate Septal Myocardial Infarction by ECG Finding
C101597	C71150		ECG Result	OLD OR AGE INDETERMINATE WALL MYOCARDIAL INFARCTION	Old Or Age Indeterminate Wall Myocardial Infarction	An electrocardiographic finding of pathologic Q waves, which is suggestive of myocardial infarction of one or more regions of the heart, without evidence of current or ongoing acute infarction. No specification is provided for localization.	Old Myocardial Infarction by ECG Finding
C102692	C71150		ECG Result	OLD OR AGE UNDETERMINED RIGHT VENTRICULAR MYOCARDIAL INFARCTION		An electrocardiographic finding, in the presence of an old or age indeterminate inferior wall myocardial infarction, of Q waves greater than or equal to 40 ms in duration in the right ventricular leads V4R through V6R.	Old or Age Indeterminate Right Ventricular Myocardial Infarction by ECG Finding
C114176	C71150		ECG Result	OTHER INCORRECT ELECTRODE PLACEMENT		An electrocardiographic recording in which one or more electrodes are incorrectly placed but further details are not provided.	Other Incorrect Electrode Placement
C90430	C71150		ECG Result	P WAVE ABNORMALITY	P Wave Abnormality	An electrocardiographic finding for the P wave that is atypical either for the shape, duration, amplitude, axis or polarity. Abnormality of the P wave signifies aberrant propagation of the electrical impulse through the atria. (NCI)	P Wave Abnormality by ECG Finding
C90431	C71150		ECG Result	P WAVE NOTCHED	P Wave Notched	An electrocardiographic finding of P waves with two peaks longer in duration than normal and amplitude greater than normal.	P Wave Notched by ECG Finding
C92232	C71150		ECG Result	PACED ATRIAL AND VENTRICULAR RHYTHM	AV dual-paced complex(es) or rhythm; Paced Atrial And Ventricular Rhythm	An electrocardiographic finding in which both the atrial and ventricular rhythm are controlled by an electrical impulse from an artificial cardiac pacemaker.	Paced Atrial And Ventricular Rhythm
C92233	C71150		ECG Result	PACED ATRIAL RHYTHM	Atrial-paced complex(es) or rhythm; Paced Atrial Rhythm	An electrocardiographic finding in which the atrial rhythm is controlled by an electrical impulse from an artificial cardiac pacemaker.	Paced Atrial Rhythm
C88140	C71150		ECG Result	PACED RHYTHM	Atrial and/or Ventricular Paced Rhythm; Paced Rhythm	An electrocardiographic finding in which the cardiac rhythm is controlled by an electrical impulse from an artificial cardiac pacemaker.	Paced Rhythm
C92234	C71150		ECG Result	PACED VENTRICULAR RHYTHM	Paced Ventricular Rhythm; Ventricular-paced complex(es) or rhythm	An electrocardiographic finding in which the ventricular rhythm is controlled by an electrical impulse from an artificial cardiac pacemaker.	Paced Ventricular Rhythm
C62250	C71150		ECG Result	PAROXYSMAL AV BLOCK	Paroxysmal AV block	An electrocardiographic finding of the sudden onset of transient AV block, which is often associated with preexisting conduction disorders.	Paroxysmal Atrioventricular Block by ECG Finding
C34902	C71150		ECG Result	PAROXYSMAL VENTRICULAR TACHYCARDIA	Paroxysmal Ventricular Tachycardia	An episodic form of ventricular tachycardia, with abrupt onset and termination. (NCI)	Paroxysmal Ventricular Tachycardia by ECG Finding
C119250	C71150		ECG Result	PAUSE		An electrocardiographic finding of an RR interval which exceeds a predefined duration threshold, regardless of the underlying rhythm.	Pause by ECG Finding
C119251	C71150		ECG Result	PAUSE GREATER THAN 3.0 SECONDS		An electrocardiographic finding of an RR interval with duration greater than 3.0 seconds, regardless of the underlying rhythm.	Pause Greater Than Three Seconds by ECG Finding
C114172	C71150		ECG Result	POOR QUALITY ECG		An electrocardiographic recording that does not show proper quality for reasons that are not otherwise described.	Poor Quality ECG
C71033	C71150		ECG Result	POOR R WAVE PROGRESSION	Poor R Wave Progression	An electrocardiographic finding of a lack of progression of R wave height across precordial leads.	Poor R Wave Progression by ECG Finding
C35399	C71150		ECG Result	POSTERIOR WALL MYOCARDIAL INFARCTION	Posterior MI; Posterior Wall Myocardial Infarction	An electrocardiographic finding in leads V1 or V2 of an initial R wave duration greater than or equal to 40 ms, R wave greater than S wave, and upright T wave, which is suggestive of myocardial infarction of the posterior wall of the left ventricle. Evidence of inferior or lateral myocardial infarction is usually also present.	Posterior Myocardial Infarction by ECG Finding
C116135	C71150		ECG Result	PR SEGMENT DEPRESSION	PR Depression	An electrocardiographic finding of PR segment depression below the iso-electric line in multiple precordial and/or limb leads.	PR Segment Depression by ECG Finding
C34940	C71150		ECG Result	PRE-EXCITATION	Pre-excitation; Ventricular preexcitation	An electrocardiographic finding characterized by a premature activation of the whole or some part of the ventricle. The PR interval is usually shortened and delta waves are frequently present.	Pre-Excitation Syndrome
C114153	C71150		ECG Result	PRECORDIAL ELECTRODE V1 DISCONNECTED		An electrocardiographic recording in which the electrode for lead V1 is disconnected resulting in missing waveforms (flat line) for lead V1.	Disconnected Precordial Electrode V1 by ECG Finding
C114154	C71150		ECG Result	PRECORDIAL ELECTRODE V2 DISCONNECTED		An electrocardiographic recording in which the electrode for lead V2 is disconnected resulting in missing waveforms (flat line) for lead V2.	Disconnected Precordial Electrode V2 by ECG Finding
C114155	C71150		ECG Result	PRECORDIAL ELECTRODE V3 DISCONNECTED		An electrocardiographic recording in which the electrode for lead V3 is disconnected resulting in missing waveforms (flat line) for lead V3.	Disconnected Precordial Electrode V3 by ECG Finding
C114156	C71150		ECG Result	PRECORDIAL ELECTRODE V4 DISCONNECTED		An electrocardiographic recording in which the electrode for lead V4 is disconnected resulting in missing waveforms (flat line) for lead V4.	Disconnected Precordial Electrode V4 by ECG Finding
C114157	C71150		ECG Result	PRECORDIAL ELECTRODE V5 DISCONNECTED		An electrocardiographic recording in which the electrode for lead V5 is disconnected resulting in missing waveforms (flat line) for lead V5.	Disconnected Precordial Electrode V5 by ECG Finding
C114158	C71150		ECG Result	PRECORDIAL ELECTRODE V6 DISCONNECTED		An electrocardiographic recording in which the electrode for lead V6 is disconnected resulting in missing waveforms (flat line) for lead V6.	Disconnected Precordial Electrode V6 by ECG Finding
C114160	C71150		ECG Result	PRECORDIAL ELECTRODE(S) POSITIONED INCORRECTLY		An electrocardiographic recording in which one or more precordial electrodes are placed incorrectly with respect to the standard chest electrode positions resulting in improper representation of the affected leads.	Incorrectly Positioned Precordial Electrodes by ECG Finding
C114152	C71150		ECG Result	PRECORDIAL ELECTRODES INTERCHANGED	Precordial Lead Reversal	An electrocardiographic recording in which two or more of the precordial electrodes are switched resulting in improper representation of the affected leads.	Interchanged Precordial Electrodes by ECG Finding
C62257	C71150		ECG Result	PREMATURE ATRIAL COMPLEXES	APC; Atrial premature complex(es); PAC; Premature atrial complex; SVE; Supraventricular Extra Beat	An electrocardiographic finding of an ectopic impulse originating in the atria and not specifically in the sinus node. The P wave morphology of these complexes is often different from a sinus P wave and the RR intervals preceding these complexes is also shorter than those of the regular beats.	Atrial Premature Complex by ECG Finding
C102603	C71150		ECG Result	PREMATURE ATRIAL COMPLEXES BLOCKED	Atrial premature complexes, nonconducted; Non-conducted SVE; Premature Atrial Complexes Blocked; Premature Atrial Complexes Non-conducted	An electrocardiographic finding of premature atrial complexes which are not conducted to the ventricle, and which are not followed by a QRS complex.	Blocked Atrial Premature Complex by ECG Finding
C102672	C71150		ECG Result	PREMATURE ATRIAL COMPLEXES MULTIFOCAL	Multifocal SVE; Multifocal Supraventricular Extra Beats; Premature Atrial Complexes Multiform	An electrocardiographic finding of premature atrial complexes which have 2 or more distinct morphologies, suggesting origin at more than one atrial site.	Multifocal Atrial Premature Complex by ECG Finding
C102724	C71150		ECG Result	PREMATURE ATRIAL COMPLEXES UNIFOCAL	Premature Atrial Complexes Unifocal	An electrocardiographic finding of premature atrial complexes which have a single distinct morphology, suggesting origin at one atrial site.	Unifocal Atrial Premature Complex by ECG Finding
C62256	C71150		ECG Result	PREMATURE VENTRICULAR COMPLEX	PVC; VE; VPC; Ventricular Extra Beat; Ventricular premature complex(es)	An electrocardiographic finding of an ectopic impulse originating in the ventricles. The QRS morphology of these complexes is different from those of supraventricular origin. The QRS duration is often longer and the RR interval preceding the complexes is usually shorter than that of supraventricular beats.	Ventricular Premature Complex by ECG Finding
C107100	C71150		ECG Result	PREMATURE VENTRICULAR COMPLEX INTERPOLATED	Interpolated VE; Interpolated VPC; Interpolated Ventricular Extra Beat; Premature Ventricular Complexes Interpolated	An electrocardiographic finding of a premature ventricular complex which occurs between two normal QRS complexes which have normal timing.	Interpolated Premature Ventricular Complex by ECG Finding
C102673	C71150		ECG Result	PREMATURE VENTRICULAR COMPLEXES MULTIFOCAL	Multifocal VES; Multifocal VPCS; Multifocal Ventricular Extra Beats; Premature Ventricular Complexes Multifocal	An electrocardiographic finding of premature ventricular complexes which have two or more distinct morphologies, suggesting origin at more than one ventricular site.	Multifocal Ventricular Premature Complex by ECG Finding
C102725	C71150		ECG Result	PREMATURE VENTRICULAR COMPLEXES UNIFOCAL	Premature Ventricular Complexes Unifocal; Unifocal VES; Unifocal VPCS; Unifocal Ventricular Extra Beats	An electrocardiographic finding of premature ventricular complexes which have a single distinct morphology, suggesting origin at one ventricular site.	Unifocal Ventricular Premature Complex by ECG Finding
C71034	C71150		ECG Result	PROLONGED QT	Prolonged QT; Prolonged QT interval	An electrocardiographic finding in which the QT interval not corrected for heart rate is prolonged. Thresholds for different age, gender, and patient populations exist.	Prolonged QT Interval by ECG Finding
C116137	C71150		ECG Result	PROLONGED ST SEGMENT		An electrocardiographic finding of a prolonged ST segment, resulting in a long QT interval, without lengthening of the T wave duration.	Prolonged ST Segment by ECG Finding
C71094	C71150		ECG Result	Q AXIS, LEFT AXIS DEVIATION	Left-axis deviation; Q Axis, Left axis deviation; QRS axis, left axis deviation	An electrocardiographic finding of a frontal plane QRS axis from -30 to -90 degrees.	Q Axis Left Axis Deviation
C71095	C71150		ECG Result	Q AXIS, RIGHT AXIS DEVIATION	Q Axis, Right axis deviation; QRS axis, right axis deviation; Right-axis deviation	An electrocardiographic finding of a frontal plane QRS axis from +90 to +180 degrees.	Q Axis Right Axis Deviation
C90440	C71150		ECG Result	QRS COMPLEX ABNORMALITY	QRS Complex Abnormality	An electrocardiographic finding of a non-specific abnormality of the QRS complex, which is atypical in shape, duration, amplitude, axis or polarity.	QRS Complex Abnormality by ECG Finding
C83817	C71150		ECG Result	QTC PROLONGATION	QTc Prolongation	An electrocardiographic finding in which the QTc interval corrected for heart rate is prolonged. Thresholds for different age, gender, and patient populations exist.	Corrected Prolonged QT Interval by ECG Finding
C107098	C71150		ECG Result	QTCB PROLONGATION	PROLONGED QTcB	An electrocardiographic finding in which the QT interval corrected for heart rate using Bazett's formula is prolonged. Thresholds for different age, gender, and patient populations exist.	QTcB Prolongation
C107099	C71150		ECG Result	QTCF PROLONGATION	PROLONGED QTcF	An electrocardiographic finding in which the QT interval corrected for heart rate using Fridericia's formula is prolonged. Thresholds for different age, gender, and patient populations exist.	QTcF Prolongation
C114161	C71150		ECG Result	QUALITY PROBLEM NOT OTHERWISE SPECIFIED	Unknown Quality Problem	An electrocardiographic artifact or recording error with unknown origin or which is not described otherwise.	Quality Problem Not Otherwise Specified by ECG Finding
C61395	C71150		ECG Result	R ON T PHENOMENON	R on T phenomenon	An electrocardiographic finding in which the R wave of a premature ventricular complex occurs on top of the T wave of the preceding beat.	R On T Phenomenon by ECG Finding
C90444	C71150		ECG Result	R WAVE NOTCHED	R Wave Notched	An electrocardiographic finding of an R wave variant in which there is a small deflection of the R wave, with changing polarity, within the QRS complex. (NCI)	R Wave Notched by ECG Finding
C102574	C71150		ECG Result	REPOLARIZATION ABNORMALITY	Repolarization Abnormality	An electrocardiographic finding of an abnormality of T wave duration or morphology or of early repolarization.	Ventricular Repolarization Abnormality
C102706	C71150		ECG Result	REPOLARIZATION ABNORMALITY SECONDARY TO VENTRICULAR HYPERTROPHY	Repolarization Abnormality Secondary To Ventricular Hypertrophy; ST-T change due to ventricular hypertrophy	An electrocardiographic finding of ST depression and T wave inversion in the presence of increased QRS amplitude which are thought to be due to left ventricular hypertrophy.	Repolarization Abnormality Secondary To Ventricular Hypertrophy
C71041	C71150		ECG Result	RIGHT ATRIAL ABNORMALITY	P-pulmonale; Right Atrial Enlargement	An electrocardiographic finding suggesting underlying hypertrophy or dilatation of the right atrium. Electrocardiographic criteria used for the diagnosis of right atrial abnormality may include a peaked p wave greater than 2.5 millimeters in amplitude in the inferior leads. (NCI)	P-pulmonale by ECG Finding
C62270	C71150		ECG Result	RIGHT BUNDLE BRANCH BLOCK	Complete RBBB; Right bundle branch block; Right bundle-branch block	An electrocardiographic finding of a wide QRS complex with evidence of delayed conduction to the right ventricle, manifest by a widened initial portion of the QRS in V1 and V2, a widened S wave in V5, V6, I and aVL, and with QRS duration greater than or equal to 120 ms. An RsR' complex is typically present in leads V1 and V2.	Right Bundle Branch Block by ECG Finding
C92235	C71150		ECG Result	RIGHT VENTRICULAR CONDUCTION DELAY	Right Ventricular Conduction Delay; Right Ventricular Delay	An electrocardiographic finding in which there is evidence that electrical transmission through the right ventricle is impaired with a maximal QRS duration of 110 ms and which does not meet the criteria for Incomplete Right Bundle Branch Block.	Right Ventricular Conduction Delay by ECG Finding
C71077	C71150		ECG Result	RIGHT VENTRICULAR HYPERTROPHY	Right ventricular Hypertrophy	An electrocardiographic finding suggestive of a hypertrophied right ventricle, characterized by large R wave amplitudes in the right precordial leads and secondary findings of right atrial enlargement, right axis deviation, and typical pattern of ST depression and T wave inversion in the right precordial leads.	Right Ventricular Hypertrophy by ECG Finding
C92227	C71150		ECG Result	RSR PRIME	RSR'	An electrocardiographic finding in which there are two R waves, which are two deflections above the baseline resulting from a single ventricular depolarization. The first upward deflection in the complex is the R wave. The S is the first downward deflection. A second upward deflection is called the R-prime wave.	RSR' by ECG Finding
C35519	C71150		ECG Result	SEPTAL MYOCARDIAL INFARCTION	Septal myocardial infarction	An electrocardiographic finding suggesting an infarction in the anatomic location of the cardiac septum. (NCI)	Septal Myocardial Infarction by ECG Finding
C62246	C71150		ECG Result	SHORT PR INTERVAL	Short PR interval	An electrocardiographic finding of an abnormally short PR interval. Thresholds for different age, gender, and patient populations exist.	Short PR Interval by ECG Finding
C102709	C71150		ECG Result	SHORT QTC INTERVAL	Short QTc Interval	An electrocardiographic finding of a QT interval corrected for heart rate that is shorter than the lower limit of normal. Thresholds for different age, gender, and patient populations exist.	Short QTc Interval
C112402	C71150		ECG Result	SHORT QTCB		An electrocardiographic finding in which the QT interval corrected for heart rate using Bazett's formula is shortened. Thresholds for different age, gender, and patient populations exist.	QTcB Shortened
C112403	C71150		ECG Result	SHORT QTCF		An electrocardiographic finding in which the QT interval corrected for heart rate using Fridericia's formula is shortened. Thresholds for different age, gender, and patient populations exist.	QTcF Shortened
C116136	C71150		ECG Result	SHORT ST SEGMENT		An electrocardiographic finding of a short or absent ST segment, resulting in a short QT interval, without changes in T wave morphology.	Short ST Segment by ECG Finding
C50553	C71150		ECG Result	SINOATRIAL EXIT BLOCK	SA Block; Sinoatrial Block; Sinoatrial exit block	An electrocardiographic finding in which impaired conduction or automaticity within the sinus node results in the failure of impulse transmission from the sinoatrial node. This is manifest as dropped P waves during sinus rhythm.	Exit Block by ECG Finding
C62242	C71150		ECG Result	SINUS ARREST/PAUSE	Sinus arrest/pause; Sinus pause or arrest	An electrocardiographic finding in which a failure of impulse formation or conduction in the sinus node produces prolongation of the P-P interval or dropped P waves. The threshold for the prolongation of the P-P interval is not well defined.	Sinus Arrest by ECG Finding
C62239	C71150		ECG Result	SINUS ARRHYTHMIA	Respiratory Sinus Arrhythmia; Sinus arrhythmia	An electrocardiographic finding in which the sinus rate fluctuates with the respiratory cycle.	Sinus Arrhythmia by ECG Finding
C111097	C71150		ECG Result	SINUS BRADYCARDIA	Sinus bradycardia	An electrocardiographic finding of abnormally slow heart rate with its origin in the sinus node. Thresholds for different age, gender, and patient populations exist.	Sinus Bradycardia by ECG Finding
C100076	C71150		ECG Result	SINUS RHYTHM	Sinus Rhythm	An electrocardiographic finding of an atrial rhythm which originates from the sinoatrial node that is considered normal for the population.	Sinus Rhythm
C111104	C71150		ECG Result	SINUS TACHYCARDIA	Sinus tachycardia	An electrocardiographic finding of abnormally rapid heart rate with its origin in the sinus node. Thresholds for different age, gender, and patient populations exist.	Sinus Tachycardia by ECG Finding
C41330	C71150		ECG Result	ST DEPRESSION	ST depression	An electrocardiographic finding of ST segment depression below the baseline, often described as up sloping, down sloping or horizontal. (NCI)	ST Segment Depression by ECG Finding
C50540	C71150		ECG Result	ST ELEVATION	ST elevation	An electrocardiographic finding of ST segment elevation above the baseline. (NCI)	ST Segment Elevation by ECG Finding
C71029	C71150		ECG Result	ST ELEVATION PERICARDITIS	ST elevation pericarditis	An electrocardiographic finding of ST elevation which is concave upwards, and which is often accompanied by PR segment depression.	ST Elevation Pericarditis by ECG Finding
C119252	C71150		ECG Result	SUPRAVENTRICULAR COUPLET		An electrocardiographic finding in which two premature atrial complexes occur sequentially.	Supraventricular Couplet by ECG Finding
C135395	C71150		ECG Result	SUPRAVENTRICULAR ESCAPE BEAT	Supraventricular Escape Complex; Supraventricular Escape Complexes	An electrocardiographic finding of a compensatory supraventricular complex that occurs following a prolonged RR interval.	Supraventricular Escape Beat by ECG Finding
C111100	C71150		ECG Result	SUPRAVENTRICULAR TACHYCARDIA	Supraventricular tachycardia	An electrocardiographic finding of a tachycardia which does not originate in the ventricles or His Purkinje system. There is an abnormally high heart rate and QRS complexes are typically narrow, but aberration or preexcitation may be present.	Supraventricular Tachycardia by ECG Finding
C114173	C71150		ECG Result	SUSPECT LIMB ELECTRODES REVERSED, INTERPRETATION ASSUMES NO REVERSAL		An electrocardiographic recording in which an interchange of one or more limb lead electrodes is suspected, but for which an interpretation is performed as though the lead placement is correct.	Suspicion of Limb Electrodes Reversal But Interpretation Assumes No Reversal by ECG Finding
C114174	C71150		ECG Result	SUSPECT LIMB ELECTRODES REVERSED, INTERPRETATION ASSUMES REVERSAL		An electrocardiographic recording in which an interchange of one or more limb lead electrodes is suspected, and for which an interpretation is performed as though the leads have in fact been interchanged.	Suspicion of Limb Electrodes Reversal But Interpretation Assumes Reversal by ECG Finding
C71052	C71150		ECG Result	SUSTAINED VENTRICULAR TACHYCARDIA	Sustained ventricular tachycardia	An electrocardiographic finding of ventricular tachycardia greater than 30 seconds in duration. (NCI)	Sustained Ventricular Tachycardia by ECG Finding
C102718	C71150		ECG Result	T WAVE ALTERNANS	T Wave Alternans	An electrocardiographic finding in which there are variations in the shape, amplitude, or direction of the T wave from one beat to the next.	T Wave Alternans by ECG Finding
C71085	C71150		ECG Result	T WAVE INVERSION	T Wave Inversion	An electrocardiographic finding of an inversion of the T wave from the expected axis. (NCI)	T Wave Inversion by ECG Finding
C71086	C71150		ECG Result	T WAVE PEAKED	T wave peaked	An electrocardiographic finding in which the T wave appears increased in amplitude and cresting at a point. (NCI)	T Wave Peaked by ECG Finding
C71087	C71150		ECG Result	T WAVES BIPHASIC	T waves biphasic	An electrocardiographic finding of a T wave with both positive and negative components.	T Waves Biphasic by ECG Finding
C71088	C71150		ECG Result	T WAVES FLAT	T waves flat	An electrocardiographic finding in which the T wave appears decreased in amplitude. (NCI)	T Waves Flat by ECG Finding
C111121	C71150		ECG Result	TACHYCARDIA	Tachycardia	An electrocardiographic finding of abnormally rapid heart rate. Thresholds for different age, gender, and patient populations exist.	Tachycardia by ECG Finding
C50779	C71150		ECG Result	TORSADES DE POINTES	Torsades de pointes; Ventricular tachycardia, torsades de pointes	An electrocardiographic finding of an atypical rapid polymorphic ventricular tachycardia with a characteristic rotation of the QRS complex around the isoelectric baseline, occurring in the setting of a prolonged QT interval. In addition, the QRS complex displays a periodic waxing and waning of amplitude on the electrogram.	Torsades De Pointes by ECG Finding
C106579	C71150		ECG Result	U WAVE ABNORMALITY	Abnormal U Wave	An electrocardiographic finding of U waves which have increased amplitude, are inverted, or merged with the preceding T wave.	U Wave Abnormality by ECG Finding
C114170	C71150		ECG Result	UNABLE TO DIGITIZE ECG LEADS		A statement indicating the inability to digitize a paper ECG.	Inability to Digitize ECG Leads
C116131	C71150		ECG Result	UNDETERMINED RHYTHM		An electrocardiographic finding of a cardiac rhythm whose mechanism cannot be determined from the ECG.	Undetermined Rhythm by ECG Finding
C120607	C71150		ECG Result	UNDETERMINED SUPRAVENTRICULAR RHYTHM		An electrocardiographic finding of a rhythm which does not originate in the ventricles or His Purkinje system, but whose specific electrophysiologic mechanism cannot be determined from the ECG. The QRS complexes are typically narrow, but aberration or preexcitation may be present.	Undetermined Supraventricular Rhythm by ECG Finding
C71054	C71150		ECG Result	VENTRICULAR BIGEMINY	Bigeminy	An electrocardiographic finding of a normal QRS complex followed by a premature ventricular complex for 3 or more consecutive cycles; a regularly irregular rhythm of normal and abnormal QRS complexes in a 1-1 ratio.	Ventricular Bigeminy by ECG Finding
C62259	C71150		ECG Result	VENTRICULAR COUPLET	Ventricular Pair; Ventricular couplet	An electrocardiographic finding in which two premature ventricular complexes occur sequentially.	Ventricular Couplet by ECG Finding
C90483	C71150		ECG Result	VENTRICULAR ESCAPE BEAT	Ventricular Escape Beat; Ventricular escape complex(es)	An electrocardiographic finding of a compensatory ventricular complex that occurs following a prolonged RR interval.	Ventricular Escape Beat by ECG Finding
C111102	C71150		ECG Result	VENTRICULAR FIBRILLATION	Ventricular fibrillation	An electrocardiographic finding of a rapid grossly irregular ventricular rhythm with marked variability in QRS cycle length, morphology, and amplitude. The rate is typically greater than 300 bpm.	Ventricular Fibrillation by ECG Finding
C111115	C71150		ECG Result	VENTRICULAR FLUTTER	Ventricular flutter	A ventricular tachyarrhythmia characterized by a high ventricular rate (180 to 250 beats per minute) with a regular rhythm. The electrocardiogram shows large oscillating sine wave-like complexes occurring as a result of QRS complexes and T waves being merged. The P wave is not visible. (NCI)	Ventricular Flutter by ECG Finding
C102728	C71150		ECG Result	VENTRICULAR PARASYSTOLE	Parasystole; Ventricular Parasystole	An electrocardiographic finding of normal sinus rhythm coexisting with a regular ectopic ventricular rhythm.	Ventricular Parasystole by ECG Finding
C111103	C71150		ECG Result	VENTRICULAR TACHYCARDIA	Ventricular tachycardia	An electrocardiographic finding of three or more consecutive complexes of ventricular organ with a rate greater than a certain threshold (100 or 120 beats per minute are commonly used). The QRS complexes are wide and have an abnormal morphology.	Ventricular Tachycardia by ECG Finding
C62234	C71150		ECG Result	VENTRICULAR TACHYCARDIA, MONOMORPHIC	Ventricular tachycardia, monomorphic	An electrocardiographic finding of a ventricular tachycardia in which the QRS complexes have a uniform morphology.	Monomorphic Ventricular Tachycardia by ECG Finding
C62236	C71150		ECG Result	VENTRICULAR TACHYCARDIA, POLYMORPHIC	Ventricular tachycardia, polymorphic; Ventricular tachycardia, polymorphous	An electrocardiographic finding of a ventricular tachycardia in which the QRS complexes have a variable morphology and often rate.	Polymorphic Ventricular Tachycardia by ECG Finding
C71055	C71150		ECG Result	VENTRICULAR TRIGEMINY	Trigeminy	An electrocardiographic finding of two normal QRS complexes followed by a premature ventricular complex for 3 or more consecutive cycles; a regularly irregular rhythm of normal and abnormal QRS complexes in a 2-1 ratio.	Ventricular Trigeminy by ECG Finding
C130067	C71150		ECG Result	VOLTAGE CRITERIA SUGGESTING LEFT VENTRICULAR HYPERTROPHY, WITHOUT SECONDARY ECG FINDINGS		An electrocardiographic finding of large QRS amplitudes which may indicate left ventricular hypertrophy, but in the absence of any of the secondary findings which are typical of this diagnosis (left atrial enlargement, left axis deviation, or typical pattern of ST depression and T wave inversion).	Voltage Criteria Suggesting Left Ventricular Hypertrophy, Without Secondary ECG Findings
C62240	C71150		ECG Result	WANDERING ATRIAL PACEMAKER	Wandering atrial pacemaker	An electrocardiographic finding of a supraventricular arrhythmia characterized by 3 or more distinct P wave morphologies with an isoelectric baseline, variable PR intervals and no predominant atrial rhythm. The ventricular rate is typically below 100 beats per minute.	Wandering Atrial Pacemaker by ECG Finding
C71090	C71150		ECG Result	WIDE QRS TACHYCARDIA	Wide QRS tachycardia; Wide-QRS tachycardia	An electrocardiographic finding of three or more consecutive wide QRS complexes of uncertain origin with a rate greater than a certain threshold (100 or 120 beats per minute are commonly used).	Wide QRS Tachycardia by ECG Finding
C35132	C71150		ECG Result	WOLFF-PARKINSON-WHITE SYNDROME	WPW; Wolff-Parkinson-White syndrome	An electrocardiographic finding of ventricular pre-excitation. The syndrome is characterized by a short PR interval and a long QRS interval with a delta wave.	Wolff-Parkinson-White Syndrome
C71153		Yes	ECG Test Code	EGTESTCD	ECG Test Code	Terminology codelist used with ECG Tests within CDISC.	CDISC SDTM ECG Test Code Terminology
C116140	C71153		ECG Test Code	AMIEGCHG	Acute Myocardial Ischemia ECG Change	An electrocardiographic finding assessment of new or presumed new significant ST-segment-T wave (ST-T) changes or new left bundle branch block consistent with acute myocardial ischemia. (Thygesen K, Alpert JS, Jaffe AS, Simoons ML, et al.; Joint ESC/ACCF/AHA/WHF Task Force for Universal Definition of Myocardial Infarction. Third universal definition of myocardial infarction. J Am Coll Cardiol. 2012 Oct 16;60(16):1581-98).	Acute Myocardial Ischemia by ECG Assessment
C111131	C71153		ECG Test Code	AVCOND	Atrioventricular Conduction	An electrocardiographic assessment of cardiac atrioventricular conduction.	Atrioventricular Conduction ECG Assessment
C111132	C71153		ECG Test Code	AXISVOLT	Axis and Voltage	An electrocardiographic assessment of mean cardiac electrical vector and the ECG voltage.	Axis and Voltage ECG Assessment
C111155	C71153		ECG Test Code	CHYPTENL	Chamber Hypertrophy or Enlargement	An electrocardiographic assessment of chamber hypertrophy or enlargement.	Chamber Hypertrophy or Enlargement ECG Assessment
C119253	C71153		ECG Test Code	EGARMAX	ECG Maximum Atrial Rate	An electrocardiographic measurement of the maximum rate of atrial depolarizations (P waves) recorded during an interval of time, usually expressed in beats per minute.	Maximum Atrial Rate by Electrocardiogram
C119254	C71153		ECG Test Code	EGARMED	ECG Median Atrial Rate	An electrocardiographic measurement of the median rate of atrial depolarizations (P waves) recorded during an interval of time, usually expressed in beats per minute.	Median Atrial Rate by Electrocardiogram
C119255	C71153		ECG Test Code	EGARMIN	ECG Minimum Atrial Rate	An electrocardiographic measurement of the minimum rate of atrial depolarizations (P waves) recorded during an interval of time, usually expressed in beats per minute.	Minimum Atrial Rate by Electrocardiogram
C119256	C71153		ECG Test Code	EGARMN	ECG Mean Atrial Rate	An electrocardiographic measurement of the average rate of atrial depolarizations (P waves) recorded during an interval of time, usually expressed in beats per minute.	Mean Atrial Rate by Electrocardiogram
C117761	C71153		ECG Test Code	EGCOMP	Comparison to a Prior ECG	A comparative interpretation of an ECG relative to a previous (comparator) ECG. The definition of the comparator ECG may be specified elsewhere. Common comparator result values include improved, no change, deteriorated.	Comparison to a Prior ECG
C119257	C71153		ECG Test Code	EGHRMAX	ECG Maximum Heart Rate	An electrocardiographic measurement of the maximum rate of depolarization of a specific region of the heart during an interval of time, usually expressed in beats per minute. Unless otherwise specified, this is usually the maximum ventricular rate.	Maximum Heart Rate by Electrocardiogram
C123447	C71153		ECG Test Code	EGHRMED	ECG Median Heart Rate	An electrocardiographic measurement of the median rate of depolarization of a specific region of the heart during an interval of time, usually expressed in beats per minute. Unless otherwise specified, this is usually the median ventricular rate.	ECG Median Heart Rate
C119258	C71153		ECG Test Code	EGHRMIN	ECG Minimum Heart Rate	An electrocardiographic measurement of the minimum rate of depolarization of a specific region of the heart during an interval of time, usually expressed in beats per minute. Unless otherwise specified, this is usually the minimum ventricular rate.	Minimum Heart Rate by Electrocardiogram
C119259	C71153		ECG Test Code	EGHRMN	ECG Mean Heart Rate	An electrocardiographic measurement of the average rate of depolarization of a specific region of the heart during an interval of time, usually expressed in beats per minute. Unless otherwise specified, this is usually the mean ventricular rate.	Mean Heart Rate by Electrocardiogram
C120608	C71153		ECG Test Code	EGHRSI	Single RR Heart Rate	An electrocardiographic measurement of a heart rate derived from a single RR interval (interval between two consecutive QRS complexes).	Single Beat RR Extrapolated Heart Rate by ECG Assessment
C119260	C71153		ECG Test Code	EGVRMAX	ECG Maximum Ventricular Rate	An electrocardiographic measurement of the maximum rate of ventricular depolarizations (QRS complexes) recorded during an interval of time, usually expressed in beats per minute.	Maximum Ventricular Rate by Electrocardiogram
C119261	C71153		ECG Test Code	EGVRMED	ECG Median Ventricular Rate	An electrocardiographic measurement of the median rate of ventricular depolarizations (QRS complexes) recorded during an interval of time, usually expressed in beats per minute.	Median Ventricular Rate by Electrocardiogram
C119262	C71153		ECG Test Code	EGVRMIN	ECG Minimum Ventricular Rate	An electrocardiographic measurement of the minimum rate of ventricular depolarizations (QRS complexes) recorded during an interval of time, usually expressed in beats per minute.	Minimum Ventricular Rate by Electrocardiogram
C119263	C71153		ECG Test Code	EGVRMN	ECG Mean Ventricular Rate	An electrocardiographic measurement of the average rate of ventricular depolarizations (QRS complexes) recorded during an interval of time, usually expressed in beats per minute.	Mean Ventricular Rate by Electrocardiogram
C41255	C71153		ECG Test Code	INTP	Interpretation	An act or process of elucidation; explication, or explanation of the meaning of the event or thing via the assignment of objects from the domain to the constants of a formal language, truth-values to the proposition symbols, truth-functions to the connectives, other functions to the function symbols, and extensions to the predicates, if any. The assignments are result of human logic application and are not native to the symbols of the formal language.	Interpretation
C111238	C71153		ECG Test Code	IVTIACD	Intraventricular-Intraatrial Conduction	An electrocardiographic assessment of intraventricular and intra-atrial conduction.	Intraventricular and Intraatrial Conduction ECG Assessment
C117762	C71153		ECG Test Code	JTAG	JT Interval, Aggregate	An aggregate JT value based on the measurement of JT intervals from multiple beats within a single ECG. The method of aggregation, which can vary, is typically a measure of central tendency such as the mean.	Aggregate JT Interval
C117763	C71153		ECG Test Code	JTCBAG	JTcB Interval, Aggregate	A JT aggregate interval that is corrected for heart rate using Bazett's formula, based on the measurement of QT intervals from multiple beats within a single ECG. The method of aggregation, which can vary, is typically a measure of central tendency such as the mean.	Aggregate JTCB Interval
C117764	C71153		ECG Test Code	JTCBSB	JTcB Interval, Single Beat	A JT single beat interval that is corrected for heart rate using Bazett's formula, based on a QT interval measured on a single beat utilizing one or more ECG leads.	Single Beat JTCB Interval
C117765	C71153		ECG Test Code	JTCFAG	JTcF Interval, Aggregate	A JT aggregate interval that is corrected for heart rate using Fridericia's formula, based on the measurement of QT intervals from multiple beats within a single ECG. The method of aggregation, which can vary, is typically a measure of central tendency such as the mean.	Aggregate JTCF Interval
C117766	C71153		ECG Test Code	JTCFSB	JTcF Interval, Single Beat	A JT single beat interval that is corrected for heart rate using Fridericia's formula, based on a QT interval measured on a single beat utilizing one or more ECG leads.	Single Beat JTCF Interval
C62117	C71153		ECG Test Code	JTMAX	Summary (Max) JT Interval	The maximum duration (time) of the JT interval, obtained from a set of measurements of the JT interval. The JT interval is defined as the time from the J point (end of ventricular depolarization, the point at which the QRS meets the ST segment) to the end of the T wave (representing the end of ventricular repolarization). (NCI)	Maximum JT Duration
C62116	C71153		ECG Test Code	JTMIN	Summary (Min) JT Interval	The minimum duration (time) of the JT interval, obtained from a set of measurements of the JT interval. The JT interval is defined as the time from the J point (end of ventricular depolarization, the point at which the QRS meets the ST segment) to the end of the T wave (representing the end of ventricular repolarization). (NCI)	Minimum JT Duration
C117767	C71153		ECG Test Code	JTPAG	J-Tpeak Interval, Aggregate	An aggregate J-Tpeak value based on the measurement of J-Tpeak intervals from multiple beats within a single ECG. The method of aggregation, which can vary, is typically a measure of central tendency such as the mean.	Aggregate J-T Peak Interval
C117768	C71153		ECG Test Code	JTPSB	J-Tpeak Interval, Single Beat	An electrocardiographic interval measured from the J point to the peak of the T wave of a single beat utilizing one or more leads.	Single Beat J-T Peak Interval
C117769	C71153		ECG Test Code	JTSB	JT Interval, Single Beat	An electrocardiographic interval measured from the J point to the offset of the T wave of a single beat utilizing one or more leads.	Single Beat JT Interval
C111280	C71153		ECG Test Code	MI	Myocardial Infarction	An electrocardiographic assessment of findings suggestive of myocardial infarction.	Myocardial Infarction ECG Assessment
C117770	C71153		ECG Test Code	NEWQWAVE	New Q Wave	An electrocardiographic finding assessment of new or presumed new pathologic Q waves suggestive of myocardial infarction. (Thygesen K, Alpert JS, Jaffe AS, Simoons ML, et al.; Joint ESC/ACCF/AHA/WHF Task Force for Universal Definition of Myocardial Infarction. Third universal definition of myocardial infarction. J Am Coll Cardiol. 2012 Oct 16;60(16):1581-98).	New Q Wave
C118164	C71153		ECG Test Code	P_AXIS	P Wave Axis	A numerical representation of the electrocardiographic vector assessed at maximum deviation of the P wave from the isoelectric baseline, usually reported for the frontal plane.	P Wave Axis
C111285	C71153		ECG Test Code	PACEMAKR	Pacemaker	An electrocardiographic assessment of presence of artificial electronic pacing.	Pacemaker ECG Assessment
C117771	C71153		ECG Test Code	PPAG	PP Interval, Aggregate	An aggregate PP value based on the measurement of PP intervals from multiple beats within a single ECG. The method of aggregation, which can vary, is typically a measure of central tendency such as the mean.	Aggregate PP Interval
C117772	C71153		ECG Test Code	PPSM	PP Interval, Single Measurement	An electrocardiographic measurement of the interval between the onsets of two consecutive P waves.	Single Measurement PP Interval
C117773	C71153		ECG Test Code	PRAG	PR Interval, Aggregate	An aggregate PR value based on the measurement of PR intervals from multiple beats within a single ECG. The method of aggregation, which can vary, is typically a measure of central tendency such as the mean.	Aggregate PR Interval
C62131	C71153		ECG Test Code	PRMAX	Summary (Max) PR Duration	The maximum duration (time) of the PR interval, obtained from a set of measurements of the PR interval. The PR interval is defined as the time from the beginning of the P wave (representing the onset of atrial depolarization) to the beginning of the R wave (representing the onset of ventricular depolarization). In some cases, a Q wave will precede the R wave, in which case the PR interval is measured from the beginning of the P wave to the beginning of the Q wave. (NCI)	Maximum PR Duration
C62125	C71153		ECG Test Code	PRMIN	Summary (Min) PR Duration	The minimum duration (time) of the PR interval, obtained from a set of measurements of the PR interval. The PR interval is defined as the time from the beginning of the P wave (representing the onset of atrial depolarization) to the beginning of the R wave (representing the onset of ventricular depolarization). In some cases, a Q wave will precede the R wave, in which case the PR interval is measured from the beginning of the P wave to the beginning of the Q wave. (NCI)	Minimum PR Duration
C117774	C71153		ECG Test Code	PRSB	PR Interval, Single Beat	An electrocardiographic interval measured from the onset of the P wave to the onset of the QRS complex of a single beat utilizing one or more leads.	Single Beat PR Interval
C117775	C71153		ECG Test Code	PWDURAG	P Wave Duration, Aggregate	An aggregate P wave duration value based on the measurement of P wave duration intervals from multiple beats within a single ECG. The method of aggregation, which can vary, is typically a measure of central tendency such as the mean.	Aggregate P Wave Duration
C117776	C71153		ECG Test Code	PWDURSB	P Wave Duration, Single Beat	An electrocardiographic interval measured from the onset of the P wave to the offset of the P wave of a single beat utilizing one or more leads.	Single Beat P Wave Duration
C117777	C71153		ECG Test Code	PWHTAG	P Wave Amplitude, Aggregate	An aggregate P wave amplitude value based on the measurement of P wave amplitudes from multiple beats within a single ECG. The method of aggregation, which can vary, is typically a measure of central tendency such as the mean.	Aggregate P Wave Amplitude
C117778	C71153		ECG Test Code	PWHTSB	P Wave Amplitude, Single Beat	An electrocardiographic measurement of the mean amplitude (usually measured in mV) of the P wave measured from the isoelectric baseline to the peak of the P wave of a single beat utilizing one or more leads. Based on the recording gain, this measurement may also be reported in mm.	Single Beat P Wave Amplitude
C118165	C71153		ECG Test Code	QRS_AXIS	QRS Axis	A numerical representation of the electrocardiographic vector assessed at maximum deviation of the QRS complex from the isoelectric baseline, usually reported for the frontal plane.	QRS Axis
C117779	C71153		ECG Test Code	QRSAG	QRS Duration, Aggregate	An aggregate QRS value based on the measurement of QRS intervals from multiple beats within a single ECG. The method of aggregation, which can vary, is typically a measure of central tendency such as the mean.	Aggregate QRS Duration
C117780	C71153		ECG Test Code	QRSSB	QRS Duration, Single Beat	An electrocardiographic interval measured from the onset of the QRS complex to the offset of the QRS complex of a single beat utilizing one or more leads.	Single Beat QRS Duration
C117781	C71153		ECG Test Code	QRVDVPAG	QRS Duration, Ventr. Paced, Aggregate	An aggregate paced QRS duration value based on the measurement of paced QRS duration intervals from multiple beats within a single ECG. The method of aggregation, which can vary, is typically a measure of central tendency such as the mean.	Paced Ventricular Aggregate QRS Duration
C117782	C71153		ECG Test Code	QRVDVPSB	QRS Duration, Ventr. Paced, Single Beat	An electrocardiographic interval measured from the onset of the paced QRS complex to the offset of the QRS complex of a single beat utilizing one or more leads.	Paced Ventricular Single Beat QRS Duration
C117783	C71153		ECG Test Code	QTAG	QT Interval, Aggregate	An aggregate QT value based on the measurement of QT intervals from multiple beats within a single ECG. The method of aggregation, which can vary, is typically a measure of central tendency such as the mean.	Aggregate QT Interval
C124332	C71153		ECG Test Code	QTCAAG	QTca Interval, Aggregate	A QT Aggregate interval that is corrected for heart rate using individual probabilistic QT/RR slopes for each subject, based on the measurement of QT intervals from multiple beats within a single ECG or period of a continuous ECG. The method of aggregation, which can vary, is typically a measure of central tendency such as the mean.	Aggregate QTca Interval
C124333	C71153		ECG Test Code	QTCASB	QTca Interval, Single Beat	A QT interval that is corrected for heart rate using individual probabilistic QT/RR slopes for each subject, based on a QT interval measured on a single beat utilizing one or more ECG leads.	Single Beat QTca Interval
C117784	C71153		ECG Test Code	QTCBAG	QTcB Interval, Aggregate	A QT aggregate interval that is corrected for heart rate using Bazett's formula, based on the measurement of QT intervals from multiple beats within a single ECG. The method of aggregation, which can vary, is typically a measure of central tendency such as the mean.	Aggregate QTCB Interval
C117785	C71153		ECG Test Code	QTCBSB	QTcB Interval, Single Beat	A QT single beat interval that is corrected for heart rate using Bazett's formula, based on a QT interval measured on a single beat utilizing one or more ECG leads.	Single Beat QTCB Interval
C117786	C71153		ECG Test Code	QTCFAG	QTcF Interval, Aggregate	A QT aggregate interval that is corrected for heart rate using Fridericia's formula, based on the measurement of QT intervals from multiple beats within a single ECG. The method of aggregation, which can vary, is typically a measure of central tendency such as the mean.	Aggregate QTCF Interval
C117787	C71153		ECG Test Code	QTCFSB	QTcF Interval, Single Beat	A QT single beat interval that is corrected for heart rate using Fridericia's formula, based on a QT interval measured on a single beat utilizing one or more ECG leads.	Single Beat QTCF Interval
C123448	C71153		ECG Test Code	QTCLAG	QTcL Interval, Aggregate	A QT aggregate interval corrected for heart rate using a linear correction formula.	Aggregate QTcL Interval
C123449	C71153		ECG Test Code	QTCLSB	QTcL Interval, Single Beat	A QT single beat interval corrected for heart rate using a linear correction formula.	Single Beat QTcL Interval
C100391	C71153		ECG Test Code	QTCUNS	QTc Correction Method Unspecified	A QT interval that is corrected for heart rate by unspecified correction method.	Corrected QT Interval
C123450	C71153		ECG Test Code	QTCVAG	QTcV Interval, Aggregate	A QT aggregate interval corrected for heart rate using the Van der Water's correction formula.	Aggregate QTcV Interval
C123451	C71153		ECG Test Code	QTCVSB	QTcV Interval, Single Beat	A QT single beat interval corrected for heart rate using the Van der Water's correction formula.	Single Beat QTcV Interval
C62135	C71153		ECG Test Code	QTMAX	Summary (Max) QT Duration	The maximum duration (time) of the QT interval, obtained from a set of measurements of the QT interval. The QT interval is defined as the time from the beginning of the QRS complex to the end of the T wave, representing the time it takes for the ventricles to depolarize and subsequently repolarize. In some cases, the Q wave will be absent, in which case the QT interval is measured from the beginning of the R wave to the end of the T wave. (NCI)	Maximum QT Duration
C62133	C71153		ECG Test Code	QTMIN	Summary (Min) QT Duration	The minimum duration (time) of the QT interval, obtained from a set of measurements of the QT interval. The QT interval is defined as the time from the beginning of the QRS complex to the end of the T wave, representing the time it takes for the ventricles to depolarize and subsequently repolarize. In some cases, the Q wave will be absent, in which case the QT interval is measured from the beginning of the R wave to the end of the T wave. (NCI)	Minimum QT Duration
C117788	C71153		ECG Test Code	QTSB	QT Interval, Single Beat	An electrocardiographic interval measured from the onset of the QRS complex to the offset of the T wave of a single beat utilizing one or more leads.	Single Beat QT Interval
C117789	C71153		ECG Test Code	QWAAG	Q Wave Amplitude, Aggregate	An aggregate Q wave amplitude value based on the measurement of Q wave amplitudes from multiple beats within a single ECG. The method of aggregation, which can vary, is typically a measure of central tendency such as the mean.	Aggregate Q Wave Amplitude
C117790	C71153		ECG Test Code	QWASB	Q Wave Amplitude, Single Beat	An electrocardiographic measurement of the mean amplitude (usually measured in mV) of the Q wave measured from the isoelectric baseline to the peak of the Q wave of a single beat utilizing one or more leads. Based on the recording gain, this measurement may also be reported in mm.	Single Beat Q Wave Amplitude
C111307	C71153		ECG Test Code	RHYNOS	Rhythm Not Otherwise Specified	An electrocardiographic assessment of cardiac rhythm not otherwise specified.	Rhythm Not Otherwise Specified ECG Assessment
C117791	C71153		ECG Test Code	RRAG	RR Interval, Aggregate	An aggregate RR value based on the measurement of RR intervals from multiple beats within a single ECG. The method of aggregation, which can vary, is typically a measure of central tendency such as the mean.	Aggregate RR Interval
C62094	C71153		ECG Test Code	RRMAX	Summary (Max) RR Duration	The maximum duration (time) between successive peaks of R waves in a particular set of RR intervals. (NCI)	Maximum RR Duration
C62093	C71153		ECG Test Code	RRMIN	Summary (Min) RR Duration	The minimum duration (time) between successive peaks of R waves in a particular set of RR intervals. (NCI)	Minimum RR Duration
C117792	C71153		ECG Test Code	RRSM	RR Interval, Single Measurement	An electrocardiographic measurement of the interval between two consecutive R waves. If R waves are not present, this measurement may utilize the interval between the most easily identified components of the QRS complex within two consecutive beats.	RR Interval Single Measurement
C117793	C71153		ECG Test Code	RSAAG	RS Wave Amplitude, Aggregate	An aggregate RS wave amplitude value based on measurements from multiple beats from a single ECG. The method of aggregation, which can vary, is typically a measure of central tendency such as the mean.	RS Wave Amplitude Aggregate
C117794	C71153		ECG Test Code	RSASB	RS Wave Amplitude, Single Beat	An electrocardiographic measurement of the sum of the amplitudes of the R and S waves, obtained from a single beat in one particular lead or set of leads.	RS Wave Amplitude Single Beat
C117795	C71153		ECG Test Code	RWAAG	R Wave Amplitude, Aggregate	An aggregate R wave amplitude value based on the measurement of R wave amplitudes from multiple beats within a single ECG. The method of aggregation, which can vary, is typically a measure of central tendency such as the mean.	R Wave Amplitude Aggregate
C117796	C71153		ECG Test Code	RWASB	R Wave Amplitude, Single Beat	An electrocardiographic measurement of the mean amplitude (usually measured in mV) of the R wave measured from the isoelectric baseline to the peak of the R wave of a single beat utilizing one or more leads. Based on the recording gain, this measurement may also be reported in mm.	R Wave Amplitude Single Beat
C111312	C71153		ECG Test Code	SNRARRY	Sinus Node Rhythms and Arrhythmias	An electrocardiographic assessment of sinus node rhythms and arrhythmias.	Sinus Node Rhythm and Arrhythmia ECG Assessment
C111320	C71153		ECG Test Code	SPRARRY	Supraventricular Arrhythmias	An electrocardiographic assessment of supraventricular arrhythmias excluding tachycardias.	Supraventricular Arrhythmia ECG Assessment
C111321	C71153		ECG Test Code	SPRTARRY	Supraventricular Tachyarrhythmias	An electrocardiographic assessment of supraventricular tachyarrhythmias.	Supraventricular Tachyarrhythmia ECG Assessment
C117797	C71153		ECG Test Code	STDAG	ST Segment Depression, Aggregate	An aggregate ST segment depression value based on the measurement of ST segment depression from multiple beats within a single ECG. The method of aggregation, which can vary, is typically a measure of central tendency such as the mean.	ST Segment Depression Aggregate
C62163	C71153		ECG Test Code	STDPMAX	Summary (Max) ST Depression	The maximum depression (negative deflection from baseline, usually measured in mm) of the ST segment, obtained from a set of measurements of the depression of the ST segment. (NCI)	Maximum ST Segment Depression by ECG Finding
C62162	C71153		ECG Test Code	STDPMIN	Summary (Min) ST Depression	The minimum depression (negative deflection from baseline, usually measured in mm) of the ST segment, obtained from a set of measurements of the depression of the ST segment. (NCI)	Minimum ST Segment Depression by ECG Finding
C117798	C71153		ECG Test Code	STDSB	ST Segment Depression, Single Beat	An electrocardiographic measurement of the mean amplitude (usually measured in mV) of the ST segment depression below the isoelectric baseline measured from the baseline to the ST segment of a single beat utilizing one or more leads. Based on the recording gain, this measurement may also be reported in mm.	ST Segment Depression Single Beat
C117799	C71153		ECG Test Code	STDVAG	ST Segment Deviation, Aggregate	An aggregate ST segment deviation value based on the measurement of ST segment deviation from multiple beats within a single ECG. The method of aggregation, which can vary, is typically a measure of central tendency such as the mean.	ST Segment Deviation Aggregate
C62157	C71153		ECG Test Code	STDVMAX	Summary (Max) ST Deviation	The maximum deviation (distance from baseline, positive or negative, usually measured in mm) of the ST segment, obtained from a set of measurements of the deviation of the ST segment. (NCI)	Maximum ST Deviation
C62156	C71153		ECG Test Code	STDVMIN	Summary (Min) ST Deviation	The minimum deviation (distance from baseline, positive or negative, usually measured in mm) of the ST segment, obtained from a set of measurements of the deviation of the ST segment. (NCI)	Minimum ST Deviation
C117800	C71153		ECG Test Code	STDVSB	ST Segment Deviation, Single Beat	An electrocardiographic measurement of the mean amplitude (usually measured in mV) of the ST segment deviation above or below the isoelectric baseline measured from the baseline to the ST segment of a single beat utilizing one or more leads. Based on the recording gain, this measurement may also be reported in mm.	ST Segment Deviation Single Beat
C117801	C71153		ECG Test Code	STEAG	ST Segment Elevation, Aggregate	An aggregate ST segment elevation value based on the measurement of ST segment elevation from multiple beats within a single ECG. The method of aggregation, which can vary, is typically a measure of central tendency such as the mean.	ST Segment Elevation Aggregate
C62160	C71153		ECG Test Code	STELMAX	Summary (Max) ST Elevation	The maximum elevation (positive deflection from baseline, usually measured in mm) of the ST segment, obtained from a set of measurements of the elevation of the ST segment. (NCI)	Maximum ST Segment Elevation
C62159	C71153		ECG Test Code	STELMIN	Summary (Min) ST Elevation	The minimum elevation (positive deflection from baseline, usually measured in mm) of the ST segment, obtained from a set of measurements of the elevation of the ST segment. (NCI)	Minimum ST Segment Elevation
C117802	C71153		ECG Test Code	STESB	ST Segment Elevation, Single Beat	An electrocardiographic measurement of the mean amplitude (usually measured in mV) of the ST segment elevation above the isoelectric baseline measured from the baseline to the ST segment of a single beat utilizing one or more leads. Based on the recording gain, this measurement may also be reported in mm.	ST Segment Elevation Single Beat
C117803	C71153		ECG Test Code	STSDURAG	ST Segment Duration, Aggregate	An aggregate ST segment duration value based on the measurement of ST segment duration intervals from multiple beats within a single ECG. The method of aggregation, which can vary, is typically a measure of central tendency such as the mean.	ST Segment Duration Aggregate
C117804	C71153		ECG Test Code	STSDURSB	ST Segment Duration, Single Beat	An electrocardiographic interval measured from the J point to the onset of the T wave of a single beat utilizing one or more leads.	ST Segment Duration Single Beat
C111363	C71153		ECG Test Code	STSTWUW	ST Segment, T wave, and U wave	An electrocardiographic assessment of the characteristics of the ST segment, T wave, and U wave.	ST Segment, T wave, and U wave ECG Assessment
C117805	C71153		ECG Test Code	SWAAG	S Wave Amplitude, Aggregate	An aggregate S wave amplitude value based on the measurement of S wave amplitudes from multiple beats within a single ECG. The method of aggregation, which can vary, is typically a measure of central tendency such as the mean.	S Wave Amplitude Aggregate
C117806	C71153		ECG Test Code	SWASB	S Wave Amplitude, Single Beat	An electrocardiographic measurement of the mean amplitude (usually measured in mV) of the S wave measured from the isoelectric baseline to the peak of the S wave of a single beat utilizing one or more leads. Based on the recording gain, this measurement may also be reported in mm.	S Wave Amplitude Single Beat
C118166	C71153		ECG Test Code	T_AXIS	T Wave Axis	A numerical representation of the electrocardiographic vector assessed at maximum deviation of the T wave from the isoelectric baseline, usually reported for the frontal plane.	T Wave Axis
C117807	C71153		ECG Test Code	TECHQUAL	Technical Quality	A statement about an electrocardiographic recording describing technical issues or interference during the recording, processing, or transmission of the data. This does not represent an electrocardiographic diagnosis.	ECG Technical Quality
C117808	C71153		ECG Test Code	TPTEAG	Tpeak-Tend Interval, Aggregate	An aggregate Tpeak-Tend value based on the measurement of Tpeak-Tend from multiple beats within a single ECG. The method of aggregation, which can vary, is typically a measure of central tendency such as the mean.	T Peak-T End Interval Aggregate
C117809	C71153		ECG Test Code	TPTESB	Tpeak-Tend Interval, Single Beat	An electrocardiographic interval measured from the peak of the T wave to the offset of the T wave of a single beat utilizing one or more leads.	T Peak-T End Interval Single Beat
C117810	C71153		ECG Test Code	TWARAG	T Wave Area, Aggregate	An aggregate T wave area value based on the measurement of T wave areas from multiple beats within a single ECG. The method of aggregation, which can vary, is typically a measure of central tendency such as the mean.	T Wave Area Aggregate
C117811	C71153		ECG Test Code	TWARSB	T Wave Area, Single Beat	An electrocardiographic measurement of the area of the T wave of a single beat utilizing one or more leads.	T Wave Area Single Beat
C117812	C71153		ECG Test Code	TWDURAG	T Wave Duration, Aggregate	An aggregate T wave duration value based on the measurement of T wave duration intervals from multiple beats within a single ECG. The method of aggregation, which can vary, is typically a measure of central tendency such as the mean.	T Wave Duration Aggregate
C117813	C71153		ECG Test Code	TWDURSB	T Wave Duration, Single Beat	An electrocardiographic interval measured from the onset of the T wave to the offset of the T wave of a single beat utilizing one or more leads.	T Wave Duration Single Beat
C117814	C71153		ECG Test Code	TWHAG	T Wave Amplitude, Aggregate	An aggregate T wave amplitude value based on the measurement of T wave amplitudes from multiple beats within a single ECG. The method of aggregation, which can vary, is typically a measure of central tendency such as the mean.	T Wave Amplitude Aggregate
C117815	C71153		ECG Test Code	TWHSB	T Wave Amplitude, Single Beat	An electrocardiographic measurement of the mean amplitude (usually measured in mV) of the T wave measured from the isoelectric baseline to the peak of the T wave of a single beat utilizing one or more leads. Based on the recording gain, this measurement may also be reported in mm.	T Wave Amplitude Single Beat
C111330	C71153		ECG Test Code	VTARRY	Ventricular Arrhythmias	An electrocardiographic assessment of ventricular arrhythmias excluding tachycardias.	Ventricular Arrhythmia ECG Assessment
C111331	C71153		ECG Test Code	VTTARRY	Ventricular Tachyarrhythmias	An electrocardiographic assessment of ventricular tachyarrhythmias.	Ventricular Tachyarrhythmia ECG Assessment
C71151		Yes	ECG Test Method	EGMETHOD	ECG Test Method	Terminology codelist used with ECG Test Methods within CDISC.	CDISC SDTM ECG Test Method Terminology
C90349	C71151		ECG Test Method	10 LEAD STANDARD	10 Lead Standard	An electrocardiogram lead placement on the subject using a ten electrode lead set to synthesize standard 12 lead electrocardiograph data to elicit an electrical view of the heart.	10 Lead Standard
C71125	C71151		ECG Test Method	12 LEAD 1 LEAD MISSING	12 Lead 1 Lead Missing	An electrocardiogram (ECG) lead placement whereby 12 leadpoints are recorded but one standard lead position is missing therefore requiring a Mortara source consistency filter. (NCI)	12 Lead Placement 1 Lead Missing
C71116	C71151		ECG Test Method	12 LEAD CABRERA	12 Lead Cabrera	An electrocardiogram (ECG) lead placement whereby the display of the 12 standard ECG leads is in an orderly sequence in a single horizontal display of: aVL, I, -aVR, II, aVF, III, V1 to V6. In the Cabrera display the limb lead aVR is inverted (-aVR) to obtain the same positive leftward orientation as the other 5 limbs. (NCI)	12 Lead Placement Cabrera
C123444	C71151		ECG Test Method	12 LEAD CONTINUOUS ECG		A continuous electrocardiographic (ECG) recording utilizing 12 leads. The positioning of the electrodes may vary from the standard 12 lead ECG placement. Examples include but are not limited to 12 lead Holter with modified Mason-Likar lead placements, 12 lead exercise ECGs, and 12 lead telemetry systems.	12 Lead Continuous ECG
C71123	C71151		ECG Test Method	12 LEAD EASI DOWER TRANSFORMATION	12 Lead EASI Dower Transformation	An electrocardiogram (ECG) lead placement whereby 4 chest electrodes and 1 reference electrode are used to allow for continuous monitoring at the clinical level. This placement creates a 12 lead ECG that allows the acquisition of simultaneous events in the frontal, horizontal and sagittal heart planes with the linear transformation of vectors. This system provides a three-dimensional portrayal of the heart and uses mathematical and fixed coefficients for each lead. (NCI)	Lead Placement EASI Dower Transformation
C123445	C71151		ECG Test Method	12 LEAD ECG EXTRACTED FROM 12 LEAD CONTINUOUS ECG RECORDING		A standard duration (typically 10 seconds) 12 lead electrocardiogram (ECG) extracted from a 12 lead continuous ECG.	12 Lead ECG Extracted From 12 Lead Continuous ECG Recording
C71103	C71151		ECG Test Method	12 LEAD MASON LIKAR	12 Lead Mason Likar	An electrocardiogram (ECG) lead placement whereby 12 leadpoints are recorded but the standard lead positions have been modified for ECG recording during exercise. Exercise stress testing requires moving the limb electrodes to more central positions on the thorax. The electrodes are placed in bony prominences close to the bases of the respective limbs in order to avoid skeletal muscle artifact, provide stability for recording electrodes and to record waveforms similar to the standard limb sites. (NCI)	12 Lead Placement Mason Likar
C71110	C71151		ECG Test Method	12 LEAD MODIFIED MASON LIKAR	12 Lead Modified Mason Likar	An electrocardiogram (ECG) lead placement whereby 12 leadpoints are recorded but the Mason Likar lead positions have been modified so that V1 to V6 on the chest are part of a single electrode pad. In addition, lead CM5 is substituted for lead aVR. (NCI)	12 Lead Placement Mason Likar Modified
C71114	C71151		ECG Test Method	12 LEAD NON-STANDARD	12 Lead Non-Standard	An electrocardiogram (ECG) lead placement whereby the limb leads are placed on the torso for easier and faster application in emergency situations. (NCI)	12 Lead Placement Non-Standard
C116139	C71151		ECG Test Method	12 LEAD RIGHT-SIDED PRECORDIAL LEADS	12 Lead Right-sided Precordial Leads; Right-sided Chest Leads	An electrocardiogram (ECG) lead placement whereby the precordial leads are intentionally placed on the right side of the chest.	12 Lead Placement Right-sided Precordial Leads
C71112	C71151		ECG Test Method	12 LEAD SINGLE PAD	12 Lead Single Pad	An electrocardiogram (ECG) lead placement whereby 12 leadpoints are recorded but the standard lead positions have been modified so that all leads on the chest are part of a single electrode pad. (NCI)	12 Lead Placement Chest
C71102	C71151		ECG Test Method	12 LEAD STANDARD	12 Lead Standard	An electrocardiogram (ECG) lead placement whereby 12 leads are recorded, with each lead representing an electrical view of the heart. The six leads recorded in the frontal plane are derived from the placement of 3 electrodes (RA or Right Arm, LA, or Left Arm, and LL or Left Leg). These bipolar frontal leads form the basis of Einthoven's triangle, and are represented by leads I, II, and III. Three other derived (or augmented) bipolar frontal vectors are also recorded on a standard 12-lead EKG, aVR, aVF, and aVL. 6 unipolar leads, corresponding to V1 - V6 measure the electrical activity in the horizontal plane. The placement for the V leads is as follows: V1: right 4th intercostal space,V2: left 4th intercostal space, V3: halfway between V2 and V4, V4: left 5th intercostal space, mid-clavicular line, V5: horizontal to V4, anterior axillary line, V6: horizontal to V5, mid-axillary line. (NCI)	12 Lead Placement Standard
C71101	C71151		ECG Test Method	12 LEAD UNSPECIFIED	12 Lead Unspecified	An electrocardiogram (ECG) lead placement whereby 12 leadpoints are recorded but the position of the leads is unspecified. (NCI)	12 Lead Placement Unspecified
C132355	C71151		ECG Test Method	6 LEAD NEHB-SPORI		An electrocardiogram (ECG) lead configuration that is primarily used to record ECGs in non-human animals, and which uses six (6) electrodes to generate eight (8) ECG leads (ECG wave forms). The six electrode configuration includes the following: four (4) limb electrodes, which are placed analogous to an Einthoven configuration in humans, and two (2) chest electrodes. The eight (8) ECG leads recorded comprise three standard limb leads (leads I, II, and III), three augmented leads (Leads aVR, aVF, and aVL), and two chest leads, which are generated using two unipolar chest leads, typically CV5RL [rV2] and CV6LL [V2] for canines, or MV1 and MV2 for primates.	6 Lead NEHB-SPORI
C90350	C71151		ECG Test Method	6 LEAD STANDARD	6 Lead Standard	An electrocardiogram lead placement on the subject using a six electrode lead set with three standard leads and three augmented derived leads to elicit an electrical view of the heart.	6 Lead Standard
C132356	C71151		ECG Test Method	8 LEAD STANDARD		An electrocardiogram (ECG) recorded using 6 electrodes to generate 8 ECG leads (ECG wave forms). The 6 electrode configuration includes 4 limb electrodes in an Einthoven configuration and two chest electrodes. The 8 ECG leads recorded consist of three standard limb leads (leads I, II, and III), three augmented leads (leads aVR, aVF, and aVL), and two chest leads (which are generated using two unipolar chest leads (typically CV5RL [rV2] and CV6LL [V2] for canines or MV1 and MV2 for non-human primates). This lead configuration is typically used to record ECGs in non-human animals.	8 Lead Standard
C71121	C71151		ECG Test Method	BIPOLAR UNCORRECTED XYZ LEAD SYSTEM	Bipolar uncorrected XYZ lead system	An electrocardiogram (ECG) lead placement whereby the X+ lead is placed at the right mid-axillary line ate the 4th intercostal space, X- at the left mid-axillary line at he 4th intercostal space, Y+ at the proximal left leg, Y- at the superior aspect of the manubrium, Z+ at the direct posterior to Z- and Z- at the 4th intercostal space at the left sternal margin. (NCI)	Lead Placement Bipolar Uncorrected XYZ
C123446	C71151		ECG Test Method	CONTINUOUS AMBULATORY ECG		A continuous electrocardiographic (ECG) recording utilizing 1 or more leads that records and stores data directly to the device. The subject need not be restricted to a medical facility, and may be able to participate in their customary activities of daily living.	Continuous Ambulatory ECG
C71120	C71151		ECG Test Method	CUBE LEAD SYSTEM	Cube lead system	An electrocardiogram (ECG) lead placement that is a type of uncorrected vectorcardiograph. This lead system is based on a rectangular body axis. It uses an extra number of electrodes to make it three-dimensional. (NCI)	Lead Placement Cube
C71118	C71151		ECG Test Method	FRANK LEAD SYSTEM	Frank lead system	An electrocardiogram (ECG) lead placement for determining 3 orthogonal components X (right to left direction), Y (foot to head direction) and Z (back to front direction) of the heart. For this method a minimum of 4 electrodes are needed that represent the right arm, left arm, left leg and back. However, usually 7 electrodes are used to avoid dependence on the dipole location and facilitate interpretation. (NCI)	Lead Placement Frank
C71119	C71151		ECG Test Method	MCFEE-PARUNGAO LEAD SYSTEM	McFee-Parungao lead system	An electrocardiogram (ECG) lead placement for determining 3 orthogonal components X (back to front), Y (right to left) and Z (foot to head) of the heart. This system places the electrodes closer to the heart to achieve better orthogonality and a homogeneous lead field. (NCI)	Lead Placement McFee-Parungao
C71122	C71151		ECG Test Method	PSEUDO-ORTHOGONAL XYZ LEAD SYSTEM	Pseudo-orthogonal XYZ lead system	An electrocardiogram (ECG) lead placement that allows monitoring and recording of cardiac electrical activity. A V1-type lead is used whose positive electrode is localized in the 4th intercostal space, 2.5cm from the sternum. Its negative electrode is placed below the left clavicle. An addition of lead V5 and aVF can be made to facilitate interpretation. (NCI)	Lead Placement Pseudo Orthogonal XYZ
C71128	C71151		ECG Test Method	STANDARD 12-LEAD AND CC5-CM5-ML	Standard 12-lead and CC5-CM5-ML	An electrocardiogram (ECG) lead placement whereby 12 leadpoints are recorded but the standard lead positions have been modified so that the negative reference is at CM5 and the active electrode is at the left leg position. (NCI)	12 Lead Placement Standard And CC5-CM5-ML
C71126	C71151		ECG Test Method	STANDARD 12-LEAD AND CM5-CC5-CH5	Standard 12-lead and CM5-CC5-CH5	An electrocardiogram (ECG) lead placement whereby 12 leadpoints are recorded but the standard lead positions have been modified so that the bipolar lead groups place the negative of the reference electrode over the manubrium (CM5), the right scapula (CB5), V5R (CC5) or on the forehead (CH5) and the active electrode at V5. (NCI)	12 Lead Placement Standard And CC5-CM5-CH5
C71131	C71151		ECG Test Method	STANDARD 12-LEAD EXTENDED LEFT	Standard 12-lead extended to the left by V7, V8, V9	An electrocardiogram (ECG) lead placement whereby the standard lead placement is modified by having leads V7, V8 and V9. (NCI)	12 Lead Placement Standard Extended Left
C71130	C71151		ECG Test Method	STANDARD 12-LEAD EXTENDED RIGHT	Standard 12-lead extended to the right by V5R, V4R, V3R	An electrocardiogram (ECG) lead placement whereby the rightward oriented V leads progress from V1R, placed instead of the standard V2, to V6R. The V3 lead in the standard placement is replaced by V4R. (NCI)	12 Lead Placement Standard Extended Right
C71115	C71151		ECG Test Method	STANDARD LEADS FOR BICYCLE EXERCISE		Limb leads on the back (shoulder and on the hips). (NCI)	Lead Placement Bicycle
C71117	C71151		ECG Test Method	STANDARD LEADS ONE INTERCOSTAL SPACE HIGHER	Standard leads one intercostal space higher	An electrocardiographic lead placement schema in which the V leads are placed one intercostal space cephalad to the position they would have in the standard lead placement schema. (NCI)	Lead Placement Standard Intercostal Space Higher
C71092	C71151		ECG Test Method	VECTORCARDIOGRAPH CORRECTED	Vectorcardiograph Corrected	A recording of the electrical activity of the heart displayed in the form of a vector loop, corrected for anatomic inconsistencies. (NCI)	Vectorcardiograph Corrected
C71093	C71151		ECG Test Method	VECTORCARDIOGRAPH UNCORRECTED	Vectorcardiograph Uncorrected	A recording of the electrical activity of the heart displayed in the form of a vector loop, uncorrected for anatomic inconsistencies. (NCI)	Vectorcardiograph Uncorrected
C71152		Yes	ECG Test Name	EGTEST	ECG Test Name	Terminology codelist used with ECG Test Names within CDISC.	CDISC SDTM ECG Test Name Terminology
C116140	C71152		ECG Test Name	Acute Myocardial Ischemia ECG Change	Acute Myocardial Ischemia ECG Change	An electrocardiographic finding assessment of new or presumed new significant ST-segment-T wave (ST-T) changes or new left bundle branch block consistent with acute myocardial ischemia. (Thygesen K, Alpert JS, Jaffe AS, Simoons ML, et al.; Joint ESC/ACCF/AHA/WHF Task Force for Universal Definition of Myocardial Infarction. Third universal definition of myocardial infarction. J Am Coll Cardiol. 2012 Oct 16;60(16):1581-98).	Acute Myocardial Ischemia by ECG Assessment
C111131	C71152		ECG Test Name	Atrioventricular Conduction	Atrioventricular Conduction	An electrocardiographic assessment of cardiac atrioventricular conduction.	Atrioventricular Conduction ECG Assessment
C111132	C71152		ECG Test Name	Axis and Voltage	Axis and Voltage	An electrocardiographic assessment of mean cardiac electrical vector and the ECG voltage.	Axis and Voltage ECG Assessment
C111155	C71152		ECG Test Name	Chamber Hypertrophy or Enlargement	Chamber Hypertrophy or Enlargement	An electrocardiographic assessment of chamber hypertrophy or enlargement.	Chamber Hypertrophy or Enlargement ECG Assessment
C117761	C71152		ECG Test Name	Comparison to a Prior ECG	Comparison to a Prior ECG	A comparative interpretation of an ECG relative to a previous (comparator) ECG. The definition of the comparator ECG may be specified elsewhere. Common comparator result values include improved, no change, deteriorated.	Comparison to a Prior ECG
C119253	C71152		ECG Test Name	ECG Maximum Atrial Rate	ECG Maximum Atrial Rate	An electrocardiographic measurement of the maximum rate of atrial depolarizations (P waves) recorded during an interval of time, usually expressed in beats per minute.	Maximum Atrial Rate by Electrocardiogram
C119257	C71152		ECG Test Name	ECG Maximum Heart Rate	ECG Maximum Heart Rate	An electrocardiographic measurement of the maximum rate of depolarization of a specific region of the heart during an interval of time, usually expressed in beats per minute. Unless otherwise specified, this is usually the maximum ventricular rate.	Maximum Heart Rate by Electrocardiogram
C119260	C71152		ECG Test Name	ECG Maximum Ventricular Rate	ECG Maximum Ventricular Rate	An electrocardiographic measurement of the maximum rate of ventricular depolarizations (QRS complexes) recorded during an interval of time, usually expressed in beats per minute.	Maximum Ventricular Rate by Electrocardiogram
C119256	C71152		ECG Test Name	ECG Mean Atrial Rate	ECG Mean Atrial Rate	An electrocardiographic measurement of the average rate of atrial depolarizations (P waves) recorded during an interval of time, usually expressed in beats per minute.	Mean Atrial Rate by Electrocardiogram
C119259	C71152		ECG Test Name	ECG Mean Heart Rate	ECG Mean Heart Rate	An electrocardiographic measurement of the average rate of depolarization of a specific region of the heart during an interval of time, usually expressed in beats per minute. Unless otherwise specified, this is usually the mean ventricular rate.	Mean Heart Rate by Electrocardiogram
C119263	C71152		ECG Test Name	ECG Mean Ventricular Rate	ECG Mean Ventricular Rate	An electrocardiographic measurement of the average rate of ventricular depolarizations (QRS complexes) recorded during an interval of time, usually expressed in beats per minute.	Mean Ventricular Rate by Electrocardiogram
C119254	C71152		ECG Test Name	ECG Median Atrial Rate	ECG Median Atrial Rate	An electrocardiographic measurement of the median rate of atrial depolarizations (P waves) recorded during an interval of time, usually expressed in beats per minute.	Median Atrial Rate by Electrocardiogram
C123447	C71152		ECG Test Name	ECG Median Heart Rate	ECG Median Heart Rate	An electrocardiographic measurement of the median rate of depolarization of a specific region of the heart during an interval of time, usually expressed in beats per minute. Unless otherwise specified, this is usually the median ventricular rate.	ECG Median Heart Rate
C119261	C71152		ECG Test Name	ECG Median Ventricular Rate	ECG Median Ventricular Rate	An electrocardiographic measurement of the median rate of ventricular depolarizations (QRS complexes) recorded during an interval of time, usually expressed in beats per minute.	Median Ventricular Rate by Electrocardiogram
C119255	C71152		ECG Test Name	ECG Minimum Atrial Rate	ECG Minimum Atrial Rate	An electrocardiographic measurement of the minimum rate of atrial depolarizations (P waves) recorded during an interval of time, usually expressed in beats per minute.	Minimum Atrial Rate by Electrocardiogram
C119258	C71152		ECG Test Name	ECG Minimum Heart Rate	ECG Minimum Heart Rate	An electrocardiographic measurement of the minimum rate of depolarization of a specific region of the heart during an interval of time, usually expressed in beats per minute. Unless otherwise specified, this is usually the minimum ventricular rate.	Minimum Heart Rate by Electrocardiogram
C119262	C71152		ECG Test Name	ECG Minimum Ventricular Rate	ECG Minimum Ventricular Rate	An electrocardiographic measurement of the minimum rate of ventricular depolarizations (QRS complexes) recorded during an interval of time, usually expressed in beats per minute.	Minimum Ventricular Rate by Electrocardiogram
C41255	C71152		ECG Test Name	Interpretation	Interpretation	An act or process of elucidation; explication, or explanation of the meaning of the event or thing via the assignment of objects from the domain to the constants of a formal language, truth-values to the proposition symbols, truth-functions to the connectives, other functions to the function symbols, and extensions to the predicates, if any. The assignments are result of human logic application and are not native to the symbols of the formal language.	Interpretation
C111238	C71152		ECG Test Name	Intraventricular-Intraatrial Conduction	Intraventricular-Intraatrial Conduction	An electrocardiographic assessment of intraventricular and intra-atrial conduction.	Intraventricular and Intraatrial Conduction ECG Assessment
C117767	C71152		ECG Test Name	J-Tpeak Interval, Aggregate	J-Tpeak Interval, Aggregate	An aggregate J-Tpeak value based on the measurement of J-Tpeak intervals from multiple beats within a single ECG. The method of aggregation, which can vary, is typically a measure of central tendency such as the mean.	Aggregate J-T Peak Interval
C117768	C71152		ECG Test Name	J-Tpeak Interval, Single Beat	J-Tpeak Interval, Single Beat	An electrocardiographic interval measured from the J point to the peak of the T wave of a single beat utilizing one or more leads.	Single Beat J-T Peak Interval
C117762	C71152		ECG Test Name	JT Interval, Aggregate	JT Interval, Aggregate	An aggregate JT value based on the measurement of JT intervals from multiple beats within a single ECG. The method of aggregation, which can vary, is typically a measure of central tendency such as the mean.	Aggregate JT Interval
C117769	C71152		ECG Test Name	JT Interval, Single Beat	JT Interval, Single Beat	An electrocardiographic interval measured from the J point to the offset of the T wave of a single beat utilizing one or more leads.	Single Beat JT Interval
C117763	C71152		ECG Test Name	JTcB Interval, Aggregate	JTcB Interval, Aggregate	A JT aggregate interval that is corrected for heart rate using Bazett's formula, based on the measurement of QT intervals from multiple beats within a single ECG. The method of aggregation, which can vary, is typically a measure of central tendency such as the mean.	Aggregate JTCB Interval
C117764	C71152		ECG Test Name	JTcB Interval, Single Beat	JTcB Interval, Single Beat	A JT single beat interval that is corrected for heart rate using Bazett's formula, based on a QT interval measured on a single beat utilizing one or more ECG leads.	Single Beat JTCB Interval
C117765	C71152		ECG Test Name	JTcF Interval, Aggregate	JTcF Interval, Aggregate	A JT aggregate interval that is corrected for heart rate using Fridericia's formula, based on the measurement of QT intervals from multiple beats within a single ECG. The method of aggregation, which can vary, is typically a measure of central tendency such as the mean.	Aggregate JTCF Interval
C117766	C71152		ECG Test Name	JTcF Interval, Single Beat	JTcF Interval, Single Beat	A JT single beat interval that is corrected for heart rate using Fridericia's formula, based on a QT interval measured on a single beat utilizing one or more ECG leads.	Single Beat JTCF Interval
C111280	C71152		ECG Test Name	Myocardial Infarction	Myocardial Infarction	An electrocardiographic assessment of findings suggestive of myocardial infarction.	Myocardial Infarction ECG Assessment
C117770	C71152		ECG Test Name	New Q Wave	New Q Wave	An electrocardiographic finding assessment of new or presumed new pathologic Q waves suggestive of myocardial infarction. (Thygesen K, Alpert JS, Jaffe AS, Simoons ML, et al.; Joint ESC/ACCF/AHA/WHF Task Force for Universal Definition of Myocardial Infarction. Third universal definition of myocardial infarction. J Am Coll Cardiol. 2012 Oct 16;60(16):1581-98).	New Q Wave
C117777	C71152		ECG Test Name	P Wave Amplitude, Aggregate	P Wave Amplitude, Aggregate	An aggregate P wave amplitude value based on the measurement of P wave amplitudes from multiple beats within a single ECG. The method of aggregation, which can vary, is typically a measure of central tendency such as the mean.	Aggregate P Wave Amplitude
C117778	C71152		ECG Test Name	P Wave Amplitude, Single Beat	P Wave Amplitude, Single Beat	An electrocardiographic measurement of the mean amplitude (usually measured in mV) of the P wave measured from the isoelectric baseline to the peak of the P wave of a single beat utilizing one or more leads. Based on the recording gain, this measurement may also be reported in mm.	Single Beat P Wave Amplitude
C118164	C71152		ECG Test Name	P Wave Axis	P Wave Axis	A numerical representation of the electrocardiographic vector assessed at maximum deviation of the P wave from the isoelectric baseline, usually reported for the frontal plane.	P Wave Axis
C117775	C71152		ECG Test Name	P Wave Duration, Aggregate	P Wave Duration, Aggregate	An aggregate P wave duration value based on the measurement of P wave duration intervals from multiple beats within a single ECG. The method of aggregation, which can vary, is typically a measure of central tendency such as the mean.	Aggregate P Wave Duration
C117776	C71152		ECG Test Name	P Wave Duration, Single Beat	P Wave Duration, Single Beat	An electrocardiographic interval measured from the onset of the P wave to the offset of the P wave of a single beat utilizing one or more leads.	Single Beat P Wave Duration
C111285	C71152		ECG Test Name	Pacemaker	Pacemaker	An electrocardiographic assessment of presence of artificial electronic pacing.	Pacemaker ECG Assessment
C117771	C71152		ECG Test Name	PP Interval, Aggregate	PP Interval, Aggregate	An aggregate PP value based on the measurement of PP intervals from multiple beats within a single ECG. The method of aggregation, which can vary, is typically a measure of central tendency such as the mean.	Aggregate PP Interval
C117772	C71152		ECG Test Name	PP Interval, Single Measurement	PP Interval, Single Measurement	An electrocardiographic measurement of the interval between the onsets of two consecutive P waves.	Single Measurement PP Interval
C117773	C71152		ECG Test Name	PR Interval, Aggregate	PR Interval, Aggregate	An aggregate PR value based on the measurement of PR intervals from multiple beats within a single ECG. The method of aggregation, which can vary, is typically a measure of central tendency such as the mean.	Aggregate PR Interval
C117774	C71152		ECG Test Name	PR Interval, Single Beat	PR Interval, Single Beat	An electrocardiographic interval measured from the onset of the P wave to the onset of the QRS complex of a single beat utilizing one or more leads.	Single Beat PR Interval
C117789	C71152		ECG Test Name	Q Wave Amplitude, Aggregate	Q Wave Amplitude, Aggregate	An aggregate Q wave amplitude value based on the measurement of Q wave amplitudes from multiple beats within a single ECG. The method of aggregation, which can vary, is typically a measure of central tendency such as the mean.	Aggregate Q Wave Amplitude
C117790	C71152		ECG Test Name	Q Wave Amplitude, Single Beat	Q Wave Amplitude, Single Beat	An electrocardiographic measurement of the mean amplitude (usually measured in mV) of the Q wave measured from the isoelectric baseline to the peak of the Q wave of a single beat utilizing one or more leads. Based on the recording gain, this measurement may also be reported in mm.	Single Beat Q Wave Amplitude
C118165	C71152		ECG Test Name	QRS Axis	QRS Axis	A numerical representation of the electrocardiographic vector assessed at maximum deviation of the QRS complex from the isoelectric baseline, usually reported for the frontal plane.	QRS Axis
C117779	C71152		ECG Test Name	QRS Duration, Aggregate	QRS Duration, Aggregate	An aggregate QRS value based on the measurement of QRS intervals from multiple beats within a single ECG. The method of aggregation, which can vary, is typically a measure of central tendency such as the mean.	Aggregate QRS Duration
C117780	C71152		ECG Test Name	QRS Duration, Single Beat	QRS Duration, Single Beat	An electrocardiographic interval measured from the onset of the QRS complex to the offset of the QRS complex of a single beat utilizing one or more leads.	Single Beat QRS Duration
C117781	C71152		ECG Test Name	QRS Duration, Ventr. Paced, Aggregate	QRS Duration, Ventr. Paced, Aggregate	An aggregate paced QRS duration value based on the measurement of paced QRS duration intervals from multiple beats within a single ECG. The method of aggregation, which can vary, is typically a measure of central tendency such as the mean.	Paced Ventricular Aggregate QRS Duration
C117782	C71152		ECG Test Name	QRS Duration, Ventr. Paced, Single Beat	QRS Duration, Ventr. Paced, Single Beat	An electrocardiographic interval measured from the onset of the paced QRS complex to the offset of the QRS complex of a single beat utilizing one or more leads.	Paced Ventricular Single Beat QRS Duration
C117783	C71152		ECG Test Name	QT Interval, Aggregate	QT Interval, Aggregate	An aggregate QT value based on the measurement of QT intervals from multiple beats within a single ECG. The method of aggregation, which can vary, is typically a measure of central tendency such as the mean.	Aggregate QT Interval
C117788	C71152		ECG Test Name	QT Interval, Single Beat	QT Interval, Single Beat	An electrocardiographic interval measured from the onset of the QRS complex to the offset of the T wave of a single beat utilizing one or more leads.	Single Beat QT Interval
C100391	C71152		ECG Test Name	QTc Correction Method Unspecified	QTc Correction Method Unspecified	A QT interval that is corrected for heart rate by unspecified correction method.	Corrected QT Interval
C124332	C71152		ECG Test Name	QTca Interval, Aggregate	QTca Interval, Aggregate	A QT Aggregate interval that is corrected for heart rate using individual probabilistic QT/RR slopes for each subject, based on the measurement of QT intervals from multiple beats within a single ECG or period of a continuous ECG. The method of aggregation, which can vary, is typically a measure of central tendency such as the mean.	Aggregate QTca Interval
C124333	C71152		ECG Test Name	QTca Interval, Single Beat	QTca Interval, Single Beat	A QT interval that is corrected for heart rate using individual probabilistic QT/RR slopes for each subject, based on a QT interval measured on a single beat utilizing one or more ECG leads.	Single Beat QTca Interval
C117784	C71152		ECG Test Name	QTcB Interval, Aggregate	QTcB Interval, Aggregate	A QT aggregate interval that is corrected for heart rate using Bazett's formula, based on the measurement of QT intervals from multiple beats within a single ECG. The method of aggregation, which can vary, is typically a measure of central tendency such as the mean.	Aggregate QTCB Interval
C117785	C71152		ECG Test Name	QTcB Interval, Single Beat	QTcB Interval, Single Beat	A QT single beat interval that is corrected for heart rate using Bazett's formula, based on a QT interval measured on a single beat utilizing one or more ECG leads.	Single Beat QTCB Interval
C117786	C71152		ECG Test Name	QTcF Interval, Aggregate	QTcF Interval, Aggregate	A QT aggregate interval that is corrected for heart rate using Fridericia's formula, based on the measurement of QT intervals from multiple beats within a single ECG. The method of aggregation, which can vary, is typically a measure of central tendency such as the mean.	Aggregate QTCF Interval
C117787	C71152		ECG Test Name	QTcF Interval, Single Beat	QTcF Interval, Single Beat	A QT single beat interval that is corrected for heart rate using Fridericia's formula, based on a QT interval measured on a single beat utilizing one or more ECG leads.	Single Beat QTCF Interval
C123448	C71152		ECG Test Name	QTcL Interval, Aggregate	QTcL Interval, Aggregate	A QT aggregate interval corrected for heart rate using a linear correction formula.	Aggregate QTcL Interval
C123449	C71152		ECG Test Name	QTcL Interval, Single Beat	QTcL Interval, Single Beat	A QT single beat interval corrected for heart rate using a linear correction formula.	Single Beat QTcL Interval
C123450	C71152		ECG Test Name	QTcV Interval, Aggregate	QTcV Interval, Aggregate	A QT aggregate interval corrected for heart rate using the Van der Water's correction formula.	Aggregate QTcV Interval
C123451	C71152		ECG Test Name	QTcV Interval, Single Beat	QTcV Interval, Single Beat	A QT single beat interval corrected for heart rate using the Van der Water's correction formula.	Single Beat QTcV Interval
C117795	C71152		ECG Test Name	R Wave Amplitude, Aggregate	R Wave Amplitude, Aggregate	An aggregate R wave amplitude value based on the measurement of R wave amplitudes from multiple beats within a single ECG. The method of aggregation, which can vary, is typically a measure of central tendency such as the mean.	R Wave Amplitude Aggregate
C117796	C71152		ECG Test Name	R Wave Amplitude, Single Beat	R Wave Amplitude, Single Beat	An electrocardiographic measurement of the mean amplitude (usually measured in mV) of the R wave measured from the isoelectric baseline to the peak of the R wave of a single beat utilizing one or more leads. Based on the recording gain, this measurement may also be reported in mm.	R Wave Amplitude Single Beat
C111307	C71152		ECG Test Name	Rhythm Not Otherwise Specified	Rhythm Not Otherwise Specified	An electrocardiographic assessment of cardiac rhythm not otherwise specified.	Rhythm Not Otherwise Specified ECG Assessment
C117791	C71152		ECG Test Name	RR Interval, Aggregate	RR Interval, Aggregate	An aggregate RR value based on the measurement of RR intervals from multiple beats within a single ECG. The method of aggregation, which can vary, is typically a measure of central tendency such as the mean.	Aggregate RR Interval
C117792	C71152		ECG Test Name	RR Interval, Single Measurement	RR Interval, Single Measurement	An electrocardiographic measurement of the interval between two consecutive R waves. If R waves are not present, this measurement may utilize the interval between the most easily identified components of the QRS complex within two consecutive beats.	RR Interval Single Measurement
C117793	C71152		ECG Test Name	RS Wave Amplitude, Aggregate	RS Wave Amplitude, Aggregate	An aggregate RS wave amplitude value based on measurements from multiple beats from a single ECG. The method of aggregation, which can vary, is typically a measure of central tendency such as the mean.	RS Wave Amplitude Aggregate
C117794	C71152		ECG Test Name	RS Wave Amplitude, Single Beat	RS Wave Amplitude, Single Beat	An electrocardiographic measurement of the sum of the amplitudes of the R and S waves, obtained from a single beat in one particular lead or set of leads.	RS Wave Amplitude Single Beat
C117805	C71152		ECG Test Name	S Wave Amplitude, Aggregate	S Wave Amplitude, Aggregate	An aggregate S wave amplitude value based on the measurement of S wave amplitudes from multiple beats within a single ECG. The method of aggregation, which can vary, is typically a measure of central tendency such as the mean.	S Wave Amplitude Aggregate
C117806	C71152		ECG Test Name	S Wave Amplitude, Single Beat	S Wave Amplitude, Single Beat	An electrocardiographic measurement of the mean amplitude (usually measured in mV) of the S wave measured from the isoelectric baseline to the peak of the S wave of a single beat utilizing one or more leads. Based on the recording gain, this measurement may also be reported in mm.	S Wave Amplitude Single Beat
C120608	C71152		ECG Test Name	Single RR Heart Rate	Single RR Heart Rate	An electrocardiographic measurement of a heart rate derived from a single RR interval (interval between two consecutive QRS complexes).	Single Beat RR Extrapolated Heart Rate by ECG Assessment
C111312	C71152		ECG Test Name	Sinus Node Rhythms and Arrhythmias	Sinus Node Rhythms and Arrhythmias	An electrocardiographic assessment of sinus node rhythms and arrhythmias.	Sinus Node Rhythm and Arrhythmia ECG Assessment
C117797	C71152		ECG Test Name	ST Segment Depression, Aggregate	ST Segment Depression, Aggregate	An aggregate ST segment depression value based on the measurement of ST segment depression from multiple beats within a single ECG. The method of aggregation, which can vary, is typically a measure of central tendency such as the mean.	ST Segment Depression Aggregate
C117798	C71152		ECG Test Name	ST Segment Depression, Single Beat	ST Segment Depression, Single Beat	An electrocardiographic measurement of the mean amplitude (usually measured in mV) of the ST segment depression below the isoelectric baseline measured from the baseline to the ST segment of a single beat utilizing one or more leads. Based on the recording gain, this measurement may also be reported in mm.	ST Segment Depression Single Beat
C117799	C71152		ECG Test Name	ST Segment Deviation, Aggregate	ST Segment Deviation, Aggregate	An aggregate ST segment deviation value based on the measurement of ST segment deviation from multiple beats within a single ECG. The method of aggregation, which can vary, is typically a measure of central tendency such as the mean.	ST Segment Deviation Aggregate
C117800	C71152		ECG Test Name	ST Segment Deviation, Single Beat	ST Segment Deviation, Single Beat	An electrocardiographic measurement of the mean amplitude (usually measured in mV) of the ST segment deviation above or below the isoelectric baseline measured from the baseline to the ST segment of a single beat utilizing one or more leads. Based on the recording gain, this measurement may also be reported in mm.	ST Segment Deviation Single Beat
C117803	C71152		ECG Test Name	ST Segment Duration, Aggregate	ST Segment Duration, Aggregate	An aggregate ST segment duration value based on the measurement of ST segment duration intervals from multiple beats within a single ECG. The method of aggregation, which can vary, is typically a measure of central tendency such as the mean.	ST Segment Duration Aggregate
C117804	C71152		ECG Test Name	ST Segment Duration, Single Beat	ST Segment Duration, Single Beat	An electrocardiographic interval measured from the J point to the onset of the T wave of a single beat utilizing one or more leads.	ST Segment Duration Single Beat
C117801	C71152		ECG Test Name	ST Segment Elevation, Aggregate	ST Segment Elevation, Aggregate	An aggregate ST segment elevation value based on the measurement of ST segment elevation from multiple beats within a single ECG. The method of aggregation, which can vary, is typically a measure of central tendency such as the mean.	ST Segment Elevation Aggregate
C117802	C71152		ECG Test Name	ST Segment Elevation, Single Beat	ST Segment Elevation, Single Beat	An electrocardiographic measurement of the mean amplitude (usually measured in mV) of the ST segment elevation above the isoelectric baseline measured from the baseline to the ST segment of a single beat utilizing one or more leads. Based on the recording gain, this measurement may also be reported in mm.	ST Segment Elevation Single Beat
C111363	C71152		ECG Test Name	ST Segment, T wave, and U wave	ST Segment, T wave, and U wave	An electrocardiographic assessment of the characteristics of the ST segment, T wave, and U wave.	ST Segment, T wave, and U wave ECG Assessment
C62117	C71152		ECG Test Name	Summary (Max) JT Interval	Summary (Max) JT Interval	The maximum duration (time) of the JT interval, obtained from a set of measurements of the JT interval. The JT interval is defined as the time from the J point (end of ventricular depolarization, the point at which the QRS meets the ST segment) to the end of the T wave (representing the end of ventricular repolarization). (NCI)	Maximum JT Duration
C62131	C71152		ECG Test Name	Summary (Max) PR Duration	Summary (Max) PR Duration	The maximum duration (time) of the PR interval, obtained from a set of measurements of the PR interval. The PR interval is defined as the time from the beginning of the P wave (representing the onset of atrial depolarization) to the beginning of the R wave (representing the onset of ventricular depolarization). In some cases, a Q wave will precede the R wave, in which case the PR interval is measured from the beginning of the P wave to the beginning of the Q wave. (NCI)	Maximum PR Duration
C62135	C71152		ECG Test Name	Summary (Max) QT Duration	Summary (Max) QT Duration	The maximum duration (time) of the QT interval, obtained from a set of measurements of the QT interval. The QT interval is defined as the time from the beginning of the QRS complex to the end of the T wave, representing the time it takes for the ventricles to depolarize and subsequently repolarize. In some cases, the Q wave will be absent, in which case the QT interval is measured from the beginning of the R wave to the end of the T wave. (NCI)	Maximum QT Duration
C62094	C71152		ECG Test Name	Summary (Max) RR Duration	Summary (Max) RR Duration	The maximum duration (time) between successive peaks of R waves in a particular set of RR intervals. (NCI)	Maximum RR Duration
C62163	C71152		ECG Test Name	Summary (Max) ST Depression	Summary (Max) ST Depression	The maximum depression (negative deflection from baseline, usually measured in mm) of the ST segment, obtained from a set of measurements of the depression of the ST segment. (NCI)	Maximum ST Segment Depression by ECG Finding
C62157	C71152		ECG Test Name	Summary (Max) ST Deviation	Summary (Max) ST Deviation	The maximum deviation (distance from baseline, positive or negative, usually measured in mm) of the ST segment, obtained from a set of measurements of the deviation of the ST segment. (NCI)	Maximum ST Deviation
C62160	C71152		ECG Test Name	Summary (Max) ST Elevation	Summary (Max) ST Elevation	The maximum elevation (positive deflection from baseline, usually measured in mm) of the ST segment, obtained from a set of measurements of the elevation of the ST segment. (NCI)	Maximum ST Segment Elevation
C62116	C71152		ECG Test Name	Summary (Min) JT Interval	Summary (Min) JT Interval	The minimum duration (time) of the JT interval, obtained from a set of measurements of the JT interval. The JT interval is defined as the time from the J point (end of ventricular depolarization, the point at which the QRS meets the ST segment) to the end of the T wave (representing the end of ventricular repolarization). (NCI)	Minimum JT Duration
C62125	C71152		ECG Test Name	Summary (Min) PR Duration	Summary (Min) PR Duration	The minimum duration (time) of the PR interval, obtained from a set of measurements of the PR interval. The PR interval is defined as the time from the beginning of the P wave (representing the onset of atrial depolarization) to the beginning of the R wave (representing the onset of ventricular depolarization). In some cases, a Q wave will precede the R wave, in which case the PR interval is measured from the beginning of the P wave to the beginning of the Q wave. (NCI)	Minimum PR Duration
C62133	C71152		ECG Test Name	Summary (Min) QT Duration	Summary (Min) QT Duration	The minimum duration (time) of the QT interval, obtained from a set of measurements of the QT interval. The QT interval is defined as the time from the beginning of the QRS complex to the end of the T wave, representing the time it takes for the ventricles to depolarize and subsequently repolarize. In some cases, the Q wave will be absent, in which case the QT interval is measured from the beginning of the R wave to the end of the T wave. (NCI)	Minimum QT Duration
C62093	C71152		ECG Test Name	Summary (Min) RR Duration	Summary (Min) RR Duration	The minimum duration (time) between successive peaks of R waves in a particular set of RR intervals. (NCI)	Minimum RR Duration
C62162	C71152		ECG Test Name	Summary (Min) ST Depression	Summary (Min) ST Depression	The minimum depression (negative deflection from baseline, usually measured in mm) of the ST segment, obtained from a set of measurements of the depression of the ST segment. (NCI)	Minimum ST Segment Depression by ECG Finding
C62156	C71152		ECG Test Name	Summary (Min) ST Deviation	Summary (Min) ST Deviation	The minimum deviation (distance from baseline, positive or negative, usually measured in mm) of the ST segment, obtained from a set of measurements of the deviation of the ST segment. (NCI)	Minimum ST Deviation
C62159	C71152		ECG Test Name	Summary (Min) ST Elevation	Summary (Min) ST Elevation	The minimum elevation (positive deflection from baseline, usually measured in mm) of the ST segment, obtained from a set of measurements of the elevation of the ST segment. (NCI)	Minimum ST Segment Elevation
C111320	C71152		ECG Test Name	Supraventricular Arrhythmias	Supraventricular Arrhythmias	An electrocardiographic assessment of supraventricular arrhythmias excluding tachycardias.	Supraventricular Arrhythmia ECG Assessment
C111321	C71152		ECG Test Name	Supraventricular Tachyarrhythmias	Supraventricular Tachyarrhythmias	An electrocardiographic assessment of supraventricular tachyarrhythmias.	Supraventricular Tachyarrhythmia ECG Assessment
C117814	C71152		ECG Test Name	T Wave Amplitude, Aggregate	T Wave Amplitude, Aggregate	An aggregate T wave amplitude value based on the measurement of T wave amplitudes from multiple beats within a single ECG. The method of aggregation, which can vary, is typically a measure of central tendency such as the mean.	T Wave Amplitude Aggregate
C117815	C71152		ECG Test Name	T Wave Amplitude, Single Beat	T Wave Amplitude, Single Beat	An electrocardiographic measurement of the mean amplitude (usually measured in mV) of the T wave measured from the isoelectric baseline to the peak of the T wave of a single beat utilizing one or more leads. Based on the recording gain, this measurement may also be reported in mm.	T Wave Amplitude Single Beat
C117810	C71152		ECG Test Name	T Wave Area, Aggregate	T Wave Area, Aggregate	An aggregate T wave area value based on the measurement of T wave areas from multiple beats within a single ECG. The method of aggregation, which can vary, is typically a measure of central tendency such as the mean.	T Wave Area Aggregate
C117811	C71152		ECG Test Name	T Wave Area, Single Beat	T Wave Area, Single Beat	An electrocardiographic measurement of the area of the T wave of a single beat utilizing one or more leads.	T Wave Area Single Beat
C118166	C71152		ECG Test Name	T Wave Axis	T Wave Axis	A numerical representation of the electrocardiographic vector assessed at maximum deviation of the T wave from the isoelectric baseline, usually reported for the frontal plane.	T Wave Axis
C117812	C71152		ECG Test Name	T Wave Duration, Aggregate	T Wave Duration, Aggregate	An aggregate T wave duration value based on the measurement of T wave duration intervals from multiple beats within a single ECG. The method of aggregation, which can vary, is typically a measure of central tendency such as the mean.	T Wave Duration Aggregate
C117813	C71152		ECG Test Name	T Wave Duration, Single Beat	T Wave Duration, Single Beat	An electrocardiographic interval measured from the onset of the T wave to the offset of the T wave of a single beat utilizing one or more leads.	T Wave Duration Single Beat
C117807	C71152		ECG Test Name	Technical Quality	Technical Quality	A statement about an electrocardiographic recording describing technical issues or interference during the recording, processing, or transmission of the data. This does not represent an electrocardiographic diagnosis.	ECG Technical Quality
C117808	C71152		ECG Test Name	Tpeak-Tend Interval, Aggregate	Tpeak-Tend Interval, Aggregate	An aggregate Tpeak-Tend value based on the measurement of Tpeak-Tend from multiple beats within a single ECG. The method of aggregation, which can vary, is typically a measure of central tendency such as the mean.	T Peak-T End Interval Aggregate
C117809	C71152		ECG Test Name	Tpeak-Tend Interval, Single Beat	Tpeak-Tend Interval, Single Beat	An electrocardiographic interval measured from the peak of the T wave to the offset of the T wave of a single beat utilizing one or more leads.	T Peak-T End Interval Single Beat
C111330	C71152		ECG Test Name	Ventricular Arrhythmias	Ventricular Arrhythmias	An electrocardiographic assessment of ventricular arrhythmias excluding tachycardias.	Ventricular Arrhythmia ECG Assessment
C111331	C71152		ECG Test Name	Ventricular Tachyarrhythmias	Ventricular Tachyarrhythmias	An electrocardiographic assessment of ventricular tachyarrhythmias.	Ventricular Tachyarrhythmia ECG Assessment
C120522		Yes	Holter ECG Results	HESTRESC	Holter ECG Results	Terminology relevant to the responses that describe Holter ECG interpretative findings.	CDISC SDTM Holter ECG Results Terminology
C111088	C120522		Holter ECG Results	1ST DEGREE AV BLOCK	1st degree AV block; PR Prolongation; Prolonged PR interval	An electrocardiographic finding of prolonged PR interval for a specific population. For adults one common threshold is a PR interval greater than 0.20 seconds. Note that other thresholds may be applicable.	AV Block First Degree by ECG Finding
C71044	C120522		Holter ECG Results	2:1 AV BLOCK	2:1 AV block	An electrocardiographic finding of a supraventricular rhythm where the ratio of impulses generated above the atrioventricular node to the number of impulses conducted through to the ventricles is 2:1. This is manifest on the ECG as 2 P waves per QRS complex.	2:1 Atrioventricular Block by ECG Finding
C62016	C120522		Holter ECG Results	2ND DEGREE AV BLOCK	Second Degree AV Block	An electrocardiographic finding of intermittent failure of atrial electrical impulse conduction to the ventricles. This is manifest on the ECG by regular P waves which intermittently are not followed by QRS complexes.	AV Block Second Degree by ECG Finding
C111091	C120522		Holter ECG Results	3RD DEGREE AV BLOCK	3rd Degree Heart Block; AV block, complete (third-degree); Complete Heart Block	An electrocardiographic finding of complete failure of atrial electrical impulse conduction to the ventricles. This is manifest on the ECG by disassociation of atrial and ventricular rhythms. The atrial rate must be faster than the ventricular rate.	AV Block Third Degree by ECG Finding
C114165	C120522		Holter ECG Results	50 Hz NOISE	50 Hz Artifact; 50 Hz Noise	An electrocardiographic recording showing power line interference with the electrocardiographic signal. The artifact amplitude modulation has the same frequency as the AC power system present (50 Hz).	50 Hertz Noise by ECG Finding
C114164	C120522		Holter ECG Results	60 Hz NOISE	60 Hz Artifact; 60 Hz Noise	An electrocardiographic recording showing power line interference with the electrocardiographic signal. The artifact amplitude modulation has the same frequency as the AC power system present (60 Hz).	60 Hertz Noise by ECG Finding
C116132	C120522		Holter ECG Results	ABERRANTLY CONDUCTED COMPLEXES	Aberrantly Conducted Beats	An electrocardiographic finding of an abnormally wide QRS complex(es) of supraventricular origin with prolonged QRS duration due to aberrant AV conduction.	Aberrantly Conducted Complexes by ECG Finding
C114149	C120522		Holter ECG Results	AC NOISE	AC Noise	An electrocardiographic recording showing power line interference with the electrocardiographic signal. The artifact amplitude modulation has the same frequency as the AC power system present (usually 50 Hz or 60 Hz).	Alternating Current Noise by ECG Finding
C62266	C120522		Holter ECG Results	ACCELERATED IDIOVENTRICULAR RHYTHM	Accelerated idioventricular rhythm	An electrocardiographic finding of idioventricular rhythm with a rate greater than 50 beats per minute.	Accelerated Idioventricular Rhythm by ECG Finding
C71065	C120522		Holter ECG Results	ACUTE ANTERIOR WALL MYOCARDIAL INFARCTION	Acute Anterior MI; Acute Anterior Wall Myocardial Infarction	An electrocardiographic finding of pathologic Q waves with accompanying ST elevation in leads V3 and V4, which is suggestive of acute myocardial infarction of the anterior wall of the left ventricle.	Acute Anterior Myocardial Infarction by ECG Finding
C102591	C120522		Holter ECG Results	ACUTE ANTEROLATERAL WALL MYOCARDIAL INFARCTION	Acute Anterolateral Wall Myocardial Infarction	An electrocardiographic finding of pathologic Q waves with accompanying ST elevation in leads V3 through V6, which is suggestive of acute myocardial infarction of the anterolateral wall of the left ventricle.	Acute Anterolateral Myocardial Infarction by ECG Finding
C102592	C120522		Holter ECG Results	ACUTE ANTEROSEPTAL WALL MYOCARDIAL INFARCTION	Acute Anteroseptal Wall Myocardial Infarction; Acute anteroseptal MI	An electrocardiographic finding of pathologic Q waves with accompanying ST elevation in leads V1 through V4, which is suggestive of acute myocardial infarction of the anteroseptal wall of the left ventricle.	Acute Anteroseptal Myocardial Infarction by ECG Finding
C106496	C120522		Holter ECG Results	ACUTE EXTENSIVE ANTERIOR WALL MYOCARDIAL INFARCTION		An electrocardiographic finding of pathologic Q waves with accompanying ST elevation in leads V1 to V6, I and aVL, which is suggestive of acute myocardial infarction involving the anterior and anterolateral walls of the left ventricle.	Acute Extensive Anterior Wall Myocardial Infarction by ECG Finding
C102593	C120522		Holter ECG Results	ACUTE HIGH LATERAL WALL MYOCARDIAL INFARCTION	Acute High Lateral Wall Myocardial Infarction	An electrocardiographic finding of pathologic Q waves with accompanying ST elevation in leads I and aVL, which is suggestive of acute myocardial infarction of the high lateral wall of the left ventricle.	Acute High Lateral Myocardial Infarction by ECG Finding
C71066	C120522		Holter ECG Results	ACUTE INFERIOR WALL MYOCARDIAL INFARCTION	Acute Inferior MI; Acute Inferior Wall Myocardial Infarction	An electrocardiographic finding of pathologic Q waves with accompanying ST elevation in leads III, aVF and often II, which is suggestive of acute myocardial infarction of the inferior wall of the left ventricle.	Acute Inferior Myocardial Infarction by ECG Finding
C71067	C120522		Holter ECG Results	ACUTE LATERAL WALL MYOCARDIAL INFARCTION	Acute Lateral MI; Acute Lateral Wall Myocardial Infarction	An electrocardiographic finding of pathologic Q waves with accompanying ST elevation in leads V5, V6, I and aVL, which is suggestive of acute myocardial infarction of the lateral wall of the left ventricle.	Acute Lateral Myocardial Infarction by ECG Finding
C101596	C120522		Holter ECG Results	ACUTE MYOCARDIAL INFARCTION	Acute Myocardial Infarction	An electrocardiographic finding showing a current of injury with ST elevation. No specification is provided for localization.	Acute Myocardial Infarction by ECG Finding
C71068	C120522		Holter ECG Results	ACUTE POSTERIOR WALL MYOCARDIAL INFARCTION	Acute Posterior MI; Acute Posterior Wall Myocardial Infarction	An electrocardiographic finding in leads V1 or V2 of an initial R wave duration greater than or equal to 40 ms, R wave greater than S wave, upright T wave, with accompanying ST elevation, which is suggestive of acute myocardial infarction of the posterior wall of the left ventricle. Evidence of inferior or lateral myocardial infarction is usually also present.	Acute Posterior Myocardial Infarction by ECG Finding
C102594	C120522		Holter ECG Results	ACUTE RIGHT VENTRICULAR WALL MYOCARDIAL INFARCTION	Acute Right Ventricular Wall Myocardial Infarction; Acute Right ventricular MI	An electrocardiographic finding in leads V1 or V2 of an initial R wave duration greater than or equal to 40 ms, R wave greater than S wave, upright T wave, with accompanying ST elevation, which is suggestive of acute myocardial infarction of the ventricular wall of the left ventricle. Evidence of inferior or lateral myocardial infarction is usually also present. Additional criteria include ST elevation > 100 microvolts in the right precordial leads V4R through V6R.	Acute Right Ventricular Myocardial Infarction by ECG Finding
C102595	C120522		Holter ECG Results	ACUTE SEPTAL WALL MYOCARDIAL INFARCTION	Acute Septal Wall Myocardial Infarction	An electrocardiographic finding of pathologic Q waves with accompanying ST elevation in leads V1, V2 and often V3, which is suggestive of acute myocardial infarction of the intraventricular septum.	Acute Septal Myocardial Infarction by ECG Finding
C102642	C120522		Holter ECG Results	ADVANCED/HIGH GRADE AV BLOCK	Advanced/High Grade AV Block	An electrocardiographic finding of intermittent failure of atrial electrical impulse conduction to the ventricles, characterized by two or more consecutive non-conducted P waves.	High Grade Atrioventricular Block by ECG Finding
C114159	C120522		Holter ECG Results	ALL PRECORDIAL ELECTRODES DISCONNECTED		An electrocardiographic recording in which all precordial electrodes are disconnected resulting in missing waveforms (flat line) of all leads V1 - V6.	All Precordial Electrodes Are Disconnected by ECG Finding
C71069	C120522		Holter ECG Results	ANTERIOR WALL MYOCARDIAL INFARCTION	Anterior MI; Anterior Wall Myocardial Infarction	An electrocardiographic finding of pathologic Q waves in leads V3 and V4, which is suggestive of myocardial infarction of the anterior wall of the left ventricle.	Anterior Myocardial Infarction by ECG Finding
C35303	C120522		Holter ECG Results	ANTEROLATERAL WALL MYOCARDIAL INFARCTION	Anterolateral Wall Myocardial Infarction	An electrocardiographic finding of pathologic Q waves in leads V3 through V6, which is suggestive of myocardial infarction of the anterolateral wall of the left ventricle.	Anterolateral Myocardial Infarction by ECG Finding
C35304	C120522		Holter ECG Results	ANTEROSEPTAL WALL MYOCARDIAL INFARCTION	Anteroseptal MI; Anteroseptal Wall Myocardial Infarction	An electrocardiographic finding of pathologic Q waves in leads V1 through V4, which is suggestive of myocardial infarction of the anteroseptal wall of the left ventricle.	Anteroseptal Myocardial Infarction by ECG Finding
C114162	C120522		Holter ECG Results	ARTIFACT		An electrocardiographic recording in which one or more leads display extraneous signals which do not represent cardiac electrical activity.	Artifact Lead Signal by ECG Finding
C116130	C120522		Holter ECG Results	ASYSTOLE		An electrocardiographic finding showing no cardiac electrical activity on the ECG for the entire duration of the recording.	Asystole by ECG Finding
C102596	C120522		Holter ECG Results	ATRIAL BIGEMINY		An electrocardiographic finding of a sinus beat followed by a premature atrial complex for three or more consecutive cycles; a regularly irregular rhythm of normal and abnormal P waves in a 1-1 ratio.	Atrial Bigeminy by ECG Finding
C102597	C120522		Holter ECG Results	ATRIAL COUPLETS	Atrial Couplets	An electrocardiographic finding in which two premature atrial complexes occur sequentially.	Atrial Couplet by ECG Finding
C71039	C120522		Holter ECG Results	ATRIAL ENLARGEMENT	Atrial Enlargement	An electrocardiographic finding which comprises left, right or bilateral atrial enlargement. This is may be characterized by prolonged P wave duration, increased P wave amplitude, or multi-component P waves.	Atrial Enlargement by ECG Finding
C111092	C120522		Holter ECG Results	ATRIAL FIBRILLATION	Atrial fibrillation	An electrocardiographic finding of a supraventricular arrhythmia characterized by the replacement of consistent P waves by rapid oscillations or fibrillatory waves that vary in size, shape and timing and are accompanied by an irregularly irregular ventricular response.	Atrial Fibrillation by ECG Finding
C111094	C120522		Holter ECG Results	ATRIAL FLUTTER	Atrial flutter	An electrocardiographic finding of an organized, regular atrial rhythm with atrial rate of 240-340 beats per minute. Multiple P waves typically appear in the inferior leads in a saw tooth like pattern between the QRS complexes.	Atrial Flutter by ECG Finding
C111105	C120522		Holter ECG Results	ATRIAL TACHYCARDIA	Atrial tachycardia	An electrocardiographic finding of an organized, regular atrial rhythm with atrial rate between 101 and 240 beats per minute. The P wave morphology must be distinct from the sinus P wave morphology.	Atrial Tachycardia by ECG Finding
C119249	C120522		Holter ECG Results	ATRIAL TACHYCARDIA WITH AV BLOCK		An electrocardiographic finding of an atrial tachycardia which does not display 1:1 AV conduction.	Atrial Tachycardia With AV Block by ECG Finding
C102598	C120522		Holter ECG Results	ATRIAL TRIGEMINY	Atrial Trigeminy	An electrocardiographic finding of two sinus beats followed by a premature atrial complex for 3 or more consecutive cycles; a regularly irregular rhythm of normal and abnormal P waves in a 2-1 ratio.	Atrial Trigeminy by ECG Finding
C71045	C120522		Holter ECG Results	ATRIOVENTRICULAR DISSOCIATION	AV Dissociation; Atrioventricular dissociation	An electrocardiographic finding in which the electrical activity of the atria and ventricles are independent of one another.	Atrioventricular Dissociation by ECG Finding
C111089	C120522		Holter ECG Results	AV MOBITZ I	AV Mobitz I; Mobitz I Second Degree AV Block; Second degree AV block- Mobitz type I; Second-degree AV block, Mobitz type I (Wenckebach); Type 1 2nd degree AV Block; Wenckebach	An electrocardiographic finding of intermittent failure of atrial electrical impulse conduction to the ventricles, characterized by a progressively lengthening PR interval prior to the block of an atrial impulse.	AV Block Second Degree Mobitz Type I by ECG Finding
C111090	C120522		Holter ECG Results	AV MOBITZ II	Mobitz II AV Block; Mobitz II Second Degree AV Block; Type 2 2nd degree AV Block	An electrocardiographic finding of intermittent failure of atrial electrical impulse conduction to the ventricles, characterized by a relatively constant PR interval prior to the block of an atrial impulse.	AV Block Second Degree Mobitz Type II by ECG Finding
C35058	C120522		Holter ECG Results	AV NODE RE-ENTRY	AV Node Reentrant Supraventricular Tachycardia	An electrocardiographic finding of a regular supraventricular tachycardia due to reentry within the AV node. It is characterized by P waves which typically occurs nearly simultaneously with the QRS complex, resulting in a P wave which is obscured by the QRS, merged with the QRS or which may follow the QRS.	Atrioventricular Nodal Reentry Tachycardia by ECG Finding
C62261	C120522		Holter ECG Results	AV RE-ENTRANT TACHYCARDIA	AV Reentrant Supraventricular Tachycardia	An electrocardiographic finding of a regular supraventricular tachycardia which utilizes an atrioventricular bypass tract as its retrograde limb (orthodromic tachycardia) or as its antegrade limb (antidromic tachycardia). QRS complexes during sinus rhythm may show preexcitation. During orthodromic tachycardia the preexcitation is not present and a retrograde P wave may appear after the QRS complex. During antidromic tachycardia the QRS complex is preexcited.	Atrioventricular Reentrant Tachycardia by ECG Finding
C114147	C120522		Holter ECG Results	BASELINE WANDER		An electrocardiographic recording in which the isoelectric line in one or more leads is vertically displaced resulting in low frequency upward and downward movements of the signal with varying amplitudes.	Baseline Wander by ECG Finding
C71046	C120522		Holter ECG Results	BIFASCICULAR BLOCK	Bifascicular block	An electrocardiographic finding comprising right bundle branch block and left anterior fascicular block, or right bundle branch block and left posterior fascicular block. Defects occurring in two of the three divisions of the conduction system of the heart are considered bifascicular blocks. Technically left bundle branch block may be considered a bifascicular block. (NCI)	Bifascicular Block by ECG Finding
C106502	C120522		Holter ECG Results	BIVENTRICULAR HYPERTROPHY		An electrocardiographic finding suggestive of enlargement or thickening of both ventricles, with a combination of findings which are related to LVH and RVH, such as voltage criteria for LVH in the presence of marked right axis deviation.	Biventricular Hypertrophy by ECG Finding
C92228	C120522		Holter ECG Results	BORDERLINE QTCB	Borderline QTcB	An electrocardiographic finding in which the QT interval corrected for heart rate using Bazett's formula is slightly prolonged. Thresholds for different age, gender, and patient populations exist.	Borderline QTcB
C92229	C120522		Holter ECG Results	BORDERLINE QTCF	Borderline QTcF	An electrocardiographic finding in which the QT interval corrected for heart rate using Fridericia's formula is slightly prolonged. Thresholds for different age, gender, and patient populations exist.	Borderline QTcF
C111120	C120522		Holter ECG Results	BRADYCARDIA	Bradycardia	An electrocardiographic finding of abnormally slow heart rate. Thresholds for different age, gender, and patient populations exist.	Bradycardia by ECG Finding
C106503	C120522		Holter ECG Results	BRUGADA SYNDROME PATTERN		An electrocardiographic finding of complete or incomplete right bundle branch block accompanied by ST elevation in leads V1-V3. This may be noted at rest or can be provoked by medication challenge.	Brugada Syndrome Pattern by ECG Finding
C120609	C120522		Holter ECG Results	DEFIBRILLATOR DISCHARGE		An electrocardiographic finding of an artifact generated by an external or internal cardioversion or defibrillation shock.	Defibrillator Discharge by ECG Finding
C62258	C120522		Holter ECG Results	DELTA WAVE	Delta wave	An electrocardiographic finding of initial slurring (delta wave) of the QRS complex due to the presence of an accessory pathway. This characteristic ECG pattern is typically seen in Wolff-Parkinson-White syndrome.	Delta Wave by ECG Finding
C102623	C120522		Holter ECG Results	DEXTROCARDIA	Dextrocardia	An electrocardiographic finding suggestive of dextrocardia with situs inversus, characterized by reversal of normal anterior R wave progression and the appearance of reversal of the right and left arm electrodes.	Dextrocardia by ECG Finding
C102628	C120522		Holter ECG Results	EARLY R WAVE TRANSITION	Early R Wave Progression; Early R Wave Transition	An electrocardiographic finding where the amplitude of the R wave becomes greater than the amplitude of the S wave in the QRS complex at an unusually early point in the precordial leads, usually in leads V1 or V2.	Early R Wave Transition by ECG Finding
C102629	C120522		Holter ECG Results	EARLY REPOLARIZATION	Early Repolarization	An electrocardiographic finding of J point and ST segment elevation in the absence of other signs of acute ischemia or pericarditis.	Early Repolarization
C114175	C120522		Holter ECG Results	ECG ACQUIRED WITH PRECORDIAL ELECTRODES PLACED ON RIGHT CHEST		An electrocardiographic recording in which the precordial electrodes have been placed over the right chest and record a right sided ECG.	ECG Acquired with Precordial Electrodes Placed on the Right Chest
C114181	C120522		Holter ECG Results	ECG EVALUATION NOT PERFORMED DUE TO CORRUPTED DIGITAL ECG FILE		A digital electrocardiographic recording which is corrupted (i.e. ECG signal cannot be restored) such that measurements and/or interpretation cannot be performed.	ECG Evaluation Not Performed Due to Corrupted Digital ECG File
C62245	C120522		Holter ECG Results	ECTOPIC ATRIAL RHYTHM	Ectopic atrial rhythm	An electrocardiographic finding of a regular atrial rhythm with atrial rate of less than 101 beats per minute which does not originate in the sinus node, and which is characterized by P waves whose morphology differs from the P wave morphology during sinus rhythm.	Ectopic Atrial Rhythm by ECG Finding
C71042	C120522		Holter ECG Results	ECTOPIC VENTRICULAR RHYTHM	Ectopic ventricular rhythm	An electrocardiographic finding of three or more consecutive complexes of ventricular origin. The QRS complexes are wide and have an abnormal morphology.	Ectopic Ventricular Rhythm by ECG Finding
C71035	C120522		Holter ECG Results	ELECTRICAL ALTERNANS	Electrical alternans	An electrocardiographic finding in which there is an alternating pattern of any of the waveform components. (NCI)	Electrical Alternans by ECG Finding
C106520	C120522		Holter ECG Results	EXTENSIVE ANTERIOR WALL MYOCARDIAL INFARCTION		An electrocardiographic finding of pathologic Q waves in leads V1 to V6, I and aVL, which is suggestive of myocardial infarction involving the anterior and anterolateral walls of the left ventricle.	Extensive Anterior Wall Myocardial Infarction by ECG Finding
C120610	C120522		Holter ECG Results	FREQUENT PREMATURE ATRIAL COMPLEXES		An electrocardiographic finding during a continuous recording in which the frequency of atrial premature complexes exceeds the normal threshold. Note that different thresholds may apply to different patient populations.	Frequent Premature Atrial Complexes by ECG Finding
C120611	C120522		Holter ECG Results	FREQUENT PREMATURE VENTRICULAR COMPLEXES		An electrocardiographic finding during a continuous recording in which the frequency of ventricular premature complexes exceeds the normal threshold. Note that different thresholds may apply to different patient populations.	Frequent Premature Ventricular Complexes by ECG Finding
C102639	C120522		Holter ECG Results	FUSION COMPLEX	Fusion Complex; Fusion complex(es)	An electrocardiographic finding that occurs when electrical activation of the atria or ventricles occurs from two separate sites. This results in a P wave or QRS complex that displays merged characteristics of beats originating from the two different sites.	Fusion Complex
C102643	C120522		Holter ECG Results	HIGH LATERAL WALL MYOCARDIAL INFARCTION	High Lateral Wall Myocardial Infarction	An electrocardiographic finding of pathologic Q waves in leads I and aVL, which is suggestive of myocardial infarction of the high lateral wall of the left ventricle.	High Lateral Myocardial Infarction by ECG Finding
C120612	C120522		Holter ECG Results	HOLTER LEAD FAIL		A continuous, ambulatory electrocardiographic recording during which one or more electrodes are disconnected, at least temporarily, resulting in one or more invalid ECG waveforms.	Holter Lead Fail by ECG Finding
C50599	C120522		Holter ECG Results	IDIOVENTRICULAR RHYTHM	Idioventricular Rhythm	An electrocardiographic finding of three or more consecutive complexes of ventricular origin with a rate less than a certain threshold (100 or 120 beats per minute are commonly used). The QRS complexes are wide and have an abnormal morphology.	Idioventricular Rhythm
C71047	C120522		Holter ECG Results	INCOMPLETE LEFT BUNDLE BRANCH BLOCK	Incomplete left bundle branch block	An electrocardiographic finding of a wide QRS complex with evidence of delayed conduction to the left ventricle, manifest as a widened initial portion of the QRS complex in leads V5, V6, I and aVL and with QRS duration less than 120 ms.	Incomplete Left Bundle Branch Block by ECG Finding
C71048	C120522		Holter ECG Results	INCOMPLETE RIGHT BUNDLE BRANCH BLOCK	Incomplete right bundle branch block; Incomplete right bundle-branch block	An electrocardiographic finding of a wide QRS complex with evidence of delayed conduction to the right ventricle, manifest by a widened initial portion of the QRS in V1 and V2, a widened S wave in V5, V6, I and aVL, and with QRS duration less than 120 ms.	Incomplete Right Bundle Branch Block by ECG Finding
C102701	C120522		Holter ECG Results	INDETERMINATE QRS AXIS	Indeterminate Axis; Indeterminate QRS Axis; QRS Axis Indeterminate	An electrocardiographic finding in which the frontal plane QRS axis cannot be calculated.	QRS Axis Indeterminate
C35398	C120522		Holter ECG Results	INFERIOR WALL MYOCARDIAL INFARCTION	Inferior MI; Inferior Wall Myocardial Infarction	An electrocardiographic finding of pathologic Q waves in leads III, aVF and often II, which is suggestive of myocardial infarction of the inferior wall of the left ventricle.	Inferior Myocardial Infarction by ECG Finding
C71073	C120522		Holter ECG Results	INTRAATRIAL CONDUCTION DELAY	Intraatrial Conduction Delay	An electrocardiographic finding of a delay in impulse propagation through the atria. This is characterized by broad P waves which are often biphasic in V1.	Intra-Atrial Conduction Delay by ECG Finding
C62271	C120522		Holter ECG Results	INTRAVENTRICULAR CONDUCTION DELAY, NONSPECIFIC	Intraventricular Conduction Defect; Intraventricular conduction delay	An electrocardiographic finding of a widened QRS duration typically greater than 110 ms which does not meet the morphologic criteria for any of the standard bundle branch or fascicular block patterns.	Nonspecific Intraventricular Conduction Delay by ECG Finding
C62248	C120522		Holter ECG Results	ISORHYTHMIC DISSOCIATION	Isorhythmic dissociation	An electrocardiographic finding of a type of atrioventricular dissociation characterized by the atria (P waves) and ventricles (QRS complexes) beating at similar rates, although independently.	Isorhythmic Atrioventricular Dissociation
C71030	C120522		Holter ECG Results	J POINT ELEVATION	J point elevation	An electrocardiographic finding of a significant elevation above the baseline of the J point.	J Point Elevation
C71074	C120522		Holter ECG Results	JUNCTIONAL BRADYCARDIA	Junctional bradycardia	An electrocardiographic finding of a junctional rhythm with a heart rate which is abnormally low.	Junctional Bradycardia by ECG Finding
C116129	C120522		Holter ECG Results	JUNCTIONAL ESCAPE COMPLEXES	Junctional Escape Beats	An electrocardiographic finding of an escape beat following a pause which originates in the AV junction. This is manifest as a QRS complex of supraventricular origin not preceded by a P wave.	Junctional Escape Complexes by ECG Finding
C102652	C120522		Holter ECG Results	JUNCTIONAL PREMATURE COMPLEX	Junctional Extra Beat; Junctional Premature Complex; Junctional premature complex(es)	An electrocardiographic finding of an ectopic impulse originating in the AV junction presenting as a QRS complex of supraventricular origin which is not preceded by a P wave.	Junctional Premature Complex by ECG Finding
C71051	C120522		Holter ECG Results	JUNCTIONAL RHYTHM	Junctional rhythm	An electrocardiographic finding of a rhythm which originates in the AV junction and results in a normal heart rate. It is characterized by retrograde P waves which may be obscured by or may follow the QRS complexes. The QRS complexes may be narrow or may demonstrate aberration.	Junctional Rhythm by ECG Finding
C35059	C120522		Holter ECG Results	JUNCTIONAL TACHYCARDIA	Junctional tachycardia	An electrocardiographic finding of a junctional rhythm with a heart rate which is abnormally elevated.	Junctional Tachycardia by ECG Finding
C102653	C120522		Holter ECG Results	LATE R WAVE TRANSITION	Late R Wave Transition	An electrocardiographic finding where the amplitude of the R wave does not become greater than the amplitude of the S wave until an unusually late point in the precordial leads, usually in leads V4 to V6.	Late R Wave Transition by ECG Finding
C35586	C120522		Holter ECG Results	LATERAL WALL MYOCARDIAL INFARCTION	Lateral MI; Lateral Wall Myocardial Infarction	An electrocardiographic finding of pathologic Q waves in leads V5, V6, I and aVL, which is suggestive of myocardial infarction of the lateral wall of the left ventricle.	Lateral Myocardial Infarction by ECG Finding
C62267	C120522		Holter ECG Results	LEFT ANTERIOR FASCICULAR BLOCK	Left Anterior Hemiblock; Left anterior fascicular block	An electrocardiographic finding of a slightly widened QRS duration (typically less than 120 ms) with leftward frontal plane QRS axis and typically small Q waves in leads I and aVL.	Left Anterior Fascicular Block by ECG Finding
C71040	C120522		Holter ECG Results	LEFT ATRIAL ABNORMALITY	Left Atrial Enlargement; P-mitrale	An electrocardiographic finding suggesting underlying hypertrophy or dilatation of the left atrium. Electrocardiographic criteria used for the diagnosis of left atrial abnormality may include a bifid p wave, a biphasic p wave and/or a p wave duration of greater than 0.12 seconds. (NCI)	P-mitrale by ECG Finding
C62269	C120522		Holter ECG Results	LEFT BUNDLE BRANCH BLOCK	Complete LBBB; Left bundle branch block; Left bundle-branch block	An electrocardiographic finding of a wide QRS complex with evidence of delayed conduction to the left ventricle, manifest as a widened initial portion of the QRS complex in leads V5, V6, I and aVL and with QRS duration greater than or equal to 120 ms.	Left Bundle Branch Block by ECG Finding
C62268	C120522		Holter ECG Results	LEFT POSTERIOR FASCICULAR BLOCK	Left Posterior Hemiblock; Left posterior fascicular block	An electrocardiographic finding of an S1Q3 pattern and QRS axis greater than or equal to 120 degrees. It is usually seen in association with other abnormalities (e.g. RBBB or RVH).	Left Posterior Fascicular Block by ECG Finding
C92231	C120522		Holter ECG Results	LEFT VENTRICULAR CONDUCTION DELAY	Left Ventricular Conduction Delay	An electrocardiographic finding in which there is evidence that electrical transmission through the left ventricle is impaired.	Left Ventricular Conduction Delay by ECG Finding
C71076	C120522		Holter ECG Results	LEFT VENTRICULAR HYPERTROPHY	Left Ventricular Hypertrophy	An electrocardiographic finding suggestive of a hypertrophied left ventricle, characterized by large QRS amplitudes and secondary findings of left atrial enlargement, left axis deviation, or typical pattern of ST depression and T wave inversion.	Left Ventricular Hypertrophy by ECG Finding
C102655	C120522		Holter ECG Results	LEFT VENTRICULAR HYPERTROPHY WITH STRAIN	Left Ventricular Hypertrophy With Strain	An electrocardiographic finding suggestive of a hypertrophied left ventricle, characterized by large QRS amplitudes, ST depression and T wave inversion.	Left Ventricular Hypertrophy with Strain by ECG Finding
C114151	C120522		Holter ECG Results	LIMB ELECTRODE(S) DISCONNECTED		An electrocardiographic recording in which one or more of the limb electrodes are disconnected resulting in missing waveforms (often flat lines) of the respective leads.	Disconnected Limb Electrodes by ECG Finding
C114150	C120522		Holter ECG Results	LIMB ELECTRODES INTERCHANGED	Limb Lead Reversal	An electrocardiographic recording in which two or more of the limb electrodes are switched resulting in improper representation of the affected leads.	Interchanged Limb Electrodes by ECG Finding
C114166	C120522		Holter ECG Results	LOW AMPLITUDE SIGNAL	Low Amplitude QRS Complex	An electrocardiographic recording showing smaller than usual QRS complexes in one or more leads. This may represent a technical issue with the ECG acquisition or characteristics of the individual.	Low Amplitude QRS Complex by ECG Finding
C71078	C120522		Holter ECG Results	LOW QRS VOLTAGE	Low QRS voltage	An electrocardiographic finding of a QRS amplitude less than or equal to 0.5 mV in the limb leads or QRS amplitude less than or equal to 1 mV in the precordial leads.	Low QRS Voltage by ECG Finding
C116133	C120522		Holter ECG Results	LOW VOLTAGE - LIMB LEADS ONLY		An electrocardiographic finding of small QRS amplitudes (less than 500 microvolts) in all limb leads.	Low Voltage in Limb Leads Only by ECG Finding
C120613	C120522		Holter ECG Results	MARKED SINUS BRADYCARDIA		An electrocardiographic finding of sinus bradycardia with a heart rate below a threshold of clinical concern. Note that different thresholds (for rate and/or duration) may apply to different patient populations.	Marked Sinus Bradycardia by ECG Finding
C71050	C120522		Holter ECG Results	MULTIFOCAL ATRIAL TACHYCARDIA	Multifocal atrial tachycardia	An electrocardiographic finding of a supraventricular arrhythmia characterized by 3 or more distinct P wave morphologies with an isoelectric baseline, variable PR intervals and no predominant atrial rhythm. The ventricular rate is typically 100-150 beats per minute.	Multifocal Atrial Tachycardia by ECG Finding
C114148	C120522		Holter ECG Results	MUSCLE TREMOR		An electrocardiographic recording with intermittent mid to high frequency artifact in one or more leads due to muscular tremor or movement rather than cardiac activity.	Muscle Tremor Artifact
C101589	C120522		Holter ECG Results	MYOCARDIAL INFARCTION	Myocardial Infarction	An electrocardiographic finding of pathologic Q waves, which is suggestive of myocardial infarction of one or more regions of the heart. No specification is provided for localization.	Myocardial Infarction by ECG Finding
C102732	C120522		Holter ECG Results	NEW ANTERIOR WALL MYOCARDIAL INFARCTION	New Anterior MI; New Anterior Wall Myocardial Infarction	An electrocardiographic finding of pathologic Q waves in leads V3 and V4, which is suggestive of myocardial infarction of the anterior wall of the left ventricle and which is new compared to prior ECGs.	New Anterior Myocardial Infarction by ECG Finding
C102733	C120522		Holter ECG Results	NEW ANTEROLATERAL WALL MYOCARDIAL INFARCTION	New Anterolateral Wall Myocardial Infarction	An electrocardiographic finding of pathologic Q waves in leads V3 through V6, which is suggestive of myocardial infarction of the anterolateral wall of the left ventricle and which is new compared to prior ECGs.	New Anterolateral Myocardial Infarction by ECG Finding
C102734	C120522		Holter ECG Results	NEW ANTEROSEPTAL WALL MYOCARDIAL INFARCTION	New Anteroseptal Wall Myocardial Infarction	An electrocardiographic finding of pathologic Q waves in leads V1 through V4, which is suggestive of myocardial infarction of the anteroseptal wall of the left ventricle and which is new compared to prior ECGs.	New Anteroseptal Myocardial Infarction by ECG Finding
C102735	C120522		Holter ECG Results	NEW EXTENSIVE ANTERIOR WALL MYOCARDIAL INFARCTION	New Extensive Anterior Wall Myocardial Infarction	An electrocardiographic finding of pathologic Q waves in leads V1 to V6, I and aVL, which is suggestive of myocardial infarction involving the anterior and anterolateral walls of the left ventricle and which is new compared to prior ECGs.	New Extensive Anterior Myocardial Infarction by ECG Finding
C102736	C120522		Holter ECG Results	NEW HIGH LATERAL WALL MYOCARDIAL INFARCTION	New High Lateral Wall Myocardial Infarction	An electrocardiographic finding of pathologic Q waves in leads I and aVL, which is suggestive of myocardial infarction of the high lateral wall of the left ventricle and which is new compared to prior ECGs.	New High Lateral Myocardial Infarction by ECG Finding
C102737	C120522		Holter ECG Results	NEW INFERIOR WALL MYOCARDIAL INFARCTION	New Inferior Wall Myocardial Infarction	An electrocardiographic finding of pathologic Q waves in leads III, aVF and often II, which is suggestive of myocardial infarction of the inferior wall of the left ventricle and which is new compared to prior ECGs.	New Inferior Myocardial Infarction by ECG Finding
C102738	C120522		Holter ECG Results	NEW LATERAL WALL MYOCARDIAL INFARCTION	New Lateral Wall Myocardial Infarction	An electrocardiographic finding of pathologic Q waves in leads V5, V6, I and aVL, which is suggestive of myocardial infarction of the lateral wall of the left ventricle and which is new compared to prior ECGs.	New Lateral Myocardial Infarction by ECG Finding
C102731	C120522		Holter ECG Results	NEW MYOCARDIAL INFARCTION	New Myocardial Infarction	An electrocardiographic finding of pathologic Q waves, which is suggestive of myocardial infarction of one or more regions of the heart and which is new compared to prior ECGs. No specification is provided for localization.	New Myocardial Infarction by ECG Finding
C106548	C120522		Holter ECG Results	NEW POSTERIOR WALL MYOCARDIAL INFARCTION		An electrocardiographic finding in leads V1 or V2 of an initial R wave duration greater than or equal to 40 ms, R wave greater than S wave, and upright T wave, which is suggestive of myocardial infarction of the posterior wall of the left ventricle, and which is new compared to prior ECGs. Evidence of inferior or lateral myocardial infarction is usually also present.	New Posterior Wall Myocardial Infarction by ECG Finding
C102739	C120522		Holter ECG Results	NEW SEPTAL WALL MYOCARDIAL INFARCTION	New Septal Wall Myocardial Infarction	An electrocardiographic finding of pathologic Q waves in leads V1, V2 and often V3, which is suggestive of myocardial infarction of the intraventricular septum and which is new compared to prior ECGs.	New Septal Myocardial Infarction by ECG Finding
C114163	C120522		Holter ECG Results	NO ECG WAVEFORMS PRESENT		An electrocardiographic recording that displays flat lines (no waveforms are visible) in all leads present.	ECG Waveforms Not Present
C71080	C120522		Holter ECG Results	NON Q WAVE MYOCARDIAL INFARCTION	Non Q Wave Myocardial Infarction	An electrocardiographic finding of ST and T wave abnormalities in the absence of pathologic Q waves, which is suggestive of myocardial infarction in one or more regions of the heart.	Non Q Wave Myocardial Infarction by ECG Finding
C116134	C120522		Holter ECG Results	NON-DIAGNOSTIC Q WAVES		An electrocardiographic finding of Q waves which are insufficient for the diagnosis of myocardial infarction. In such cases a myocardial infarction may be suspected, even though ECG criteria are not met.	Non-Diagnostic Q Waves by ECG Finding
C71031	C120522		Holter ECG Results	NON-SPECIFIC ST-T CHANGES	Non-specific ST-T changes	An electrocardiographic finding of changes in the ST segment and T wave that do not meet criteria for ischemia or infarction. (NCI)	Non-Specific ST-T Changes by ECG Finding
C102680	C120522		Holter ECG Results	NON-SUSTAINED ATRIAL TACHYCARDIA	Non-Sustained Atrial Tachycardia	An electrocardiographic finding of an atrial tachycardia which terminates in less than 30 seconds.	Non-Sustained Atrial Tachycardia by ECG Finding
C71053	C120522		Holter ECG Results	NON-SUSTAINED VENTRICULAR TACHYCARDIA	Non-sustained ventricular tachycardia; Ventricular tachycardia, unsustained	An electrocardiographic finding of ventricular tachycardia less than 30 seconds in duration. (NCI)	Non-Sustained Ventricular Tachycardia by ECG Finding
C120614	C120522		Holter ECG Results	NONSUSTAINED SUPRAVENTRICULAR TACHYCARDIA		An electrocardiographic finding of a supraventricular tachycardia with duration shorter than 30 seconds (though other duration thresholds may be applied).	Nonsustained Supraventricular Tachycardia by ECG Finding
C102681	C120522		Holter ECG Results	NORMAL SINUS RHYTHM	Normal Sinus Rhythm	An electrocardiographic finding of an atrial rhythm which originates from the sinoatrial node that is considered normal for the population. There are no extra beats or conduction abnormalities.	Normal Sinus Rhythm
C102634	C120522		Holter ECG Results	NORTHWEST AXIS	Northwest Axis; Right superior axis	An electrocardiographic finding of a frontal plane QRS axis from -90 to +180 degrees.	Extreme Right Axis Deviation
C71032	C120522		Holter ECG Results	NOTCHED T WAVES	Notched T Waves	An electrocardiographic finding of an irregular, u or v shaped deflection within the contour of the T wave.	T Wave Notched by ECG Finding
C102684	C120522		Holter ECG Results	OLD OR AGE INDETERMINATE ANTERIOR WALL MYOCARDIAL INFARCTION	Old Or Age Indeterminate Anterior Wall Myocardial Infarction	An electrocardiographic finding of pathologic Q waves in leads V3 and V4, which is suggestive of myocardial infarction of the anterior wall of the left ventricle, without evidence of current or ongoing acute infarction.	Old or Age Indeterminate Anterior Myocardial Infarction by ECG Finding
C102685	C120522		Holter ECG Results	OLD OR AGE INDETERMINATE ANTEROLATERAL WALL MYOCARDIAL INFARCTION	Old Or Age Indeterminate Anterolateral Wall Myocardial Infarction	An electrocardiographic finding of pathologic Q waves in leads V3 through V6, which is suggestive of myocardial infarction of the anterolateral wall of the left ventricle, without evidence of current or ongoing acute infarction.	Old or Age Indeterminate Anterolateral Myocardial Infarction by ECG Finding
C102686	C120522		Holter ECG Results	OLD OR AGE INDETERMINATE ANTEROSEPTAL WALL MYOCARDIAL INFARCTION	Old Or Age Indeterminate Anteroseptal Wall Myocardial Infarction	An electrocardiographic finding of pathologic Q waves in leads V1 through V4, which is suggestive of myocardial infarction of the anteroseptal wall of the left ventricle, without evidence of current or ongoing acute infarction.	Old or Age Indeterminate Anteroseptal Myocardial Infarction by ECG Finding
C102687	C120522		Holter ECG Results	OLD OR AGE INDETERMINATE EXTENSIVE ANTERIOR WALL MYOCARDIAL INFARCTION	Old Or Age Indeterminate Extensive Anterior Wall Myocardial Infarction	An electrocardiographic finding of pathologic Q waves in leads V1 to V6, I and aVL, which is suggestive of myocardial infarction involving the anterior and anterolateral walls of the left ventricle, without evidence of current or ongoing acute infarction.	Old or Age Indeterminate Extensive Anterior Myocardial Infarction by ECG Finding
C102688	C120522		Holter ECG Results	OLD OR AGE INDETERMINATE HIGH LATERAL WALL MYOCARDIAL INFARCTION	Old Or Age Indeterminate High Lateral Wall Myocardial Infarction	An electrocardiographic finding of pathologic Q waves in leads I and aVL, which is suggestive of myocardial infarction of the high lateral wall of the left ventricle, without evidence of current or ongoing acute infarction.	Old or Age Indeterminate High Lateral Myocardial Infarction by ECG Finding
